subject,n_back,trialN,blockN,rt,correct,trialType,stim_site,timepoint,counterbalance,sessionNum,days
D_EMO,0,1,1,0.6167514969999957,1,0,DAN,2,1,2,7
D_EMO,0,2,1,0.3320722290000049,1,0,DAN,2,1,2,7
D_EMO,0,3,1,0.3879484980000143,1,1,DAN,2,1,2,7
D_EMO,0,4,1,0.351001283999949,1,0,DAN,2,1,2,7
D_EMO,0,5,1,0.3807819860001018,1,1,DAN,2,1,2,7
D_EMO,0,6,1,0.2850291610000113,1,0,DAN,2,1,2,7
D_EMO,0,7,1,0.3714858069999991,1,0,DAN,2,1,2,7
D_EMO,0,8,1,0.4002347949999603,1,1,DAN,2,1,2,7
D_EMO,0,9,1,0.46909652599993024,1,0,DAN,2,1,2,7
D_EMO,0,10,1,0.3568343540000569,1,1,DAN,2,1,2,7
D_EMO,0,11,1,0.4083809479998308,1,0,DAN,2,1,2,7
D_EMO,0,12,1,0.3474872530000539,1,0,DAN,2,1,2,7
D_EMO,0,13,1,0.42709881099995073,1,1,DAN,2,1,2,7
D_EMO,0,14,1,0.2902399409999816,1,0,DAN,2,1,2,7
D_EMO,0,15,1,0.2914476299999933,1,0,DAN,2,1,2,7
D_EMO,0,16,1,0.33304298000007293,1,0,DAN,2,1,2,7
D_EMO,0,17,1,0.283795186000134,1,0,DAN,2,1,2,7
D_EMO,0,18,1,0.3674953230001847,1,1,DAN,2,1,2,7
D_EMO,1,1,1,0.4619460680000884,1,0,DAN,2,1,2,7
D_EMO,1,2,1,0.334224230000018,1,0,DAN,2,1,2,7
D_EMO,1,3,1,0.39104295100014497,1,0,DAN,2,1,2,7
D_EMO,1,4,1,0.42287218000001303,1,1,DAN,2,1,2,7
D_EMO,1,5,1,0.3043571499999871,1,0,DAN,2,1,2,7
D_EMO,1,6,1,0.29412907200003247,1,0,DAN,2,1,2,7
D_EMO,1,7,1,0.2838034050000715,1,0,DAN,2,1,2,7
D_EMO,1,8,1,0.25054531199998564,0,1,DAN,2,1,2,7
D_EMO,1,9,1,0.2660799999998744,1,0,DAN,2,1,2,7
D_EMO,1,10,1,0.3379426980000062,0,1,DAN,2,1,2,7
D_EMO,1,11,1,0.3083157750002101,1,0,DAN,2,1,2,7
D_EMO,1,12,1,0.261021884999991,1,0,DAN,2,1,2,7
D_EMO,1,13,1,0.29162425300000905,0,1,DAN,2,1,2,7
D_EMO,1,14,1,0.2282518560000426,1,0,DAN,2,1,2,7
D_EMO,1,15,1,0.3398926859999847,1,1,DAN,2,1,2,7
D_EMO,1,16,1,0.42144088000009106,1,0,DAN,2,1,2,7
D_EMO,1,17,1,0.26623114999983954,1,1,DAN,2,1,2,7
D_EMO,1,18,1,0.38070844400021997,1,0,DAN,2,1,2,7
D_EMO,2,1,1,0.27355983000006745,1,0,DAN,2,1,2,7
D_EMO,2,2,1,0.33617095800013885,1,0,DAN,2,1,2,7
D_EMO,2,3,1,0.38750996999988274,1,1,DAN,2,1,2,7
D_EMO,2,4,1,0.350894905000132,1,0,DAN,2,1,2,7
D_EMO,2,5,1,0.5045431949999966,1,0,DAN,2,1,2,7
D_EMO,2,6,1,0.3190985900000669,0,0,DAN,2,1,2,7
D_EMO,2,7,1,0.34036409500004083,1,0,DAN,2,1,2,7
D_EMO,2,8,1,0.3349011039999823,0,1,DAN,2,1,2,7
D_EMO,2,9,1,0.26037152699996113,1,0,DAN,2,1,2,7
D_EMO,2,10,1,0.27426599999989776,0,1,DAN,2,1,2,7
D_EMO,2,11,1,0.2871692730000177,1,0,DAN,2,1,2,7
D_EMO,2,12,1,0.2667025640000702,1,0,DAN,2,1,2,7
D_EMO,2,13,1,0.4370810600000823,1,1,DAN,2,1,2,7
D_EMO,2,14,1,0.3235709880000286,1,0,DAN,2,1,2,7
D_EMO,2,15,1,0.5618854659999215,1,1,DAN,2,1,2,7
D_EMO,2,16,1,0.26205891499989775,1,0,DAN,2,1,2,7
D_EMO,2,17,1,0.26616417199988973,0,1,DAN,2,1,2,7
D_EMO,2,18,1,0.4470125969999117,1,0,DAN,2,1,2,7
D_EMO,0,1,1,0.3930280380000113,1,0,FPCNB,3,2,3,14
D_EMO,0,2,1,0.3185540120000496,1,0,FPCNB,3,2,3,14
D_EMO,0,3,1,0.32839567700000316,1,0,FPCNB,3,2,3,14
D_EMO,0,4,1,0.3731228929999588,1,0,FPCNB,3,2,3,14
D_EMO,0,5,1,0.310487918999911,1,1,FPCNB,3,2,3,14
D_EMO,0,6,1,0.2658946679999872,1,0,FPCNB,3,2,3,14
D_EMO,0,7,1,0.28837164699996265,1,1,FPCNB,3,2,3,14
D_EMO,0,8,1,0.31228585699989253,1,0,FPCNB,3,2,3,14
D_EMO,0,9,1,0.322914634999961,1,0,FPCNB,3,2,3,14
D_EMO,0,10,1,0.3149114670000017,1,0,FPCNB,3,2,3,14
D_EMO,0,11,1,0.4253519360000837,1,1,FPCNB,3,2,3,14
D_EMO,0,12,1,0.3818203360000325,1,0,FPCNB,3,2,3,14
D_EMO,0,13,1,0.3903672739999138,1,1,FPCNB,3,2,3,14
D_EMO,0,14,1,0.3321141900000839,1,0,FPCNB,3,2,3,14
D_EMO,0,15,1,0.3432876359999,1,0,FPCNB,3,2,3,14
D_EMO,0,16,1,0.35395794300006855,1,1,FPCNB,3,2,3,14
D_EMO,0,17,1,0.2744079970000257,1,0,FPCNB,3,2,3,14
D_EMO,0,18,1,0.3879431110000269,1,1,FPCNB,3,2,3,14
D_EMO,1,1,1,0.27890021700000034,1,0,FPCNB,3,2,3,14
D_EMO,1,2,1,0.47234992500000317,1,0,FPCNB,3,2,3,14
D_EMO,1,3,1,0.3076027420000855,1,1,FPCNB,3,2,3,14
D_EMO,1,4,1,0.29972844999997506,1,0,FPCNB,3,2,3,14
D_EMO,1,5,1,0.3704228769998963,1,0,FPCNB,3,2,3,14
D_EMO,1,6,1,0.3989804580000964,1,1,FPCNB,3,2,3,14
D_EMO,1,7,1,0.3367820189999975,1,0,FPCNB,3,2,3,14
D_EMO,1,8,1,0.3285565340000858,1,0,FPCNB,3,2,3,14
D_EMO,1,9,1,0.3615612300000066,1,0,FPCNB,3,2,3,14
D_EMO,1,10,1,0.4378284370000074,1,1,FPCNB,3,2,3,14
D_EMO,1,11,1,0.3928406380000524,1,0,FPCNB,3,2,3,14
D_EMO,1,12,1,0.3736385000000837,1,0,FPCNB,3,2,3,14
D_EMO,1,13,1,0.4104696319999448,1,1,FPCNB,3,2,3,14
D_EMO,1,14,1,0.35120577400005004,1,0,FPCNB,3,2,3,14
D_EMO,1,15,1,0.43254804699995475,1,0,FPCNB,3,2,3,14
D_EMO,1,16,1,0.5093104320000066,1,1,FPCNB,3,2,3,14
D_EMO,1,17,1,0.3500778719999289,1,0,FPCNB,3,2,3,14
D_EMO,1,18,1,0.5375549890000002,1,1,FPCNB,3,2,3,14
D_EMO,2,1,1,0.30991661300004125,0,1,FPCNB,3,2,3,14
D_EMO,2,2,1,0.5077284950000376,1,0,FPCNB,3,2,3,14
D_EMO,2,3,1,0.3894869560000416,1,0,FPCNB,3,2,3,14
D_EMO,2,4,1,0.42873847700002443,1,1,FPCNB,3,2,3,14
D_EMO,2,5,1,0.5352215750000369,1,0,FPCNB,3,2,3,14
D_EMO,2,6,1,0.4784809950000408,1,0,FPCNB,3,2,3,14
D_EMO,2,7,1,0.3383822150000242,1,1,FPCNB,3,2,3,14
D_EMO,2,8,1,0.39725794499997846,1,0,FPCNB,3,2,3,14
D_EMO,2,9,1,0.4414549860000534,1,0,FPCNB,3,2,3,14
D_EMO,2,10,1,0.4974263780000001,1,0,FPCNB,3,2,3,14
D_EMO,2,11,1,0.3795099349999873,1,1,FPCNB,3,2,3,14
D_EMO,2,12,1,0.4015574720000359,1,0,FPCNB,3,2,3,14
D_EMO,2,13,1,0.4685720479999418,1,0,FPCNB,3,2,3,14
D_EMO,2,14,1,0.34444171699999515,1,1,FPCNB,3,2,3,14
D_EMO,2,15,1,0.369392451000067,1,0,FPCNB,3,2,3,14
D_EMO,2,16,1,0.4585634840000239,1,1,FPCNB,3,2,3,14
D_EMO,2,17,1,0.46634759700009454,1,1,FPCNB,3,2,3,14
D_EMO,2,18,1,0.3464828400001352,1,0,FPCNB,3,2,3,14
D_EMO,0,1,1,,0,0,vertex,prac,3,1,0
D_EMO,0,2,1,0.5303675200000271,1,0,vertex,prac,3,1,0
D_EMO,0,3,1,0.5816531859998122,1,1,vertex,prac,3,1,0
D_EMO,0,4,1,0.3747734760002004,1,0,vertex,prac,3,1,0
D_EMO,0,5,1,0.47800126399988585,1,1,vertex,prac,3,1,0
D_EMO,0,6,1,0.41814023299980363,1,0,vertex,prac,3,1,0
D_EMO,0,7,1,0.35858124200012753,1,1,vertex,prac,3,1,0
D_EMO,0,8,1,0.42026043199984997,1,0,vertex,prac,3,1,0
D_EMO,0,9,1,0.35890186000005997,1,0,vertex,prac,3,1,0
D_EMO,0,10,1,0.33380680999994183,1,0,vertex,prac,3,1,0
D_EMO,0,11,1,0.2733445000001211,0,1,vertex,prac,3,1,0
D_EMO,0,12,1,0.42216213799997604,1,0,vertex,prac,3,1,0
D_EMO,0,13,1,0.39289642399990043,1,0,vertex,prac,3,1,0
D_EMO,0,14,1,0.31353774200010776,1,0,vertex,prac,3,1,0
D_EMO,0,15,1,0.3215190350001649,1,0,vertex,prac,3,1,0
D_EMO,0,16,1,0.4714740469999015,1,1,vertex,prac,3,1,0
D_EMO,0,17,1,0.4194322920000104,1,0,vertex,prac,3,1,0
D_EMO,0,18,1,0.3961060379999708,1,1,vertex,prac,3,1,0
D_EMO,1,1,1,0.38563683000006677,1,0,vertex,prac,3,1,0
D_EMO,1,2,1,0.5716503500000272,1,0,vertex,prac,3,1,0
D_EMO,1,3,1,0.4124628079998729,1,1,vertex,prac,3,1,0
D_EMO,1,4,1,0.36635675000002266,1,0,vertex,prac,3,1,0
D_EMO,1,5,1,0.5919117360001565,1,0,vertex,prac,3,1,0
D_EMO,1,6,1,0.66608939799994,1,1,vertex,prac,3,1,0
D_EMO,1,7,1,0.5845244829999956,1,0,vertex,prac,3,1,0
D_EMO,1,8,1,0.3111102129998926,1,1,vertex,prac,3,1,0
D_EMO,1,9,1,0.4507469889999811,1,0,vertex,prac,3,1,0
D_EMO,1,10,1,0.6707007649999923,1,1,vertex,prac,3,1,0
D_EMO,1,11,1,0.7303397089999635,1,0,vertex,prac,3,1,0
D_EMO,1,12,1,0.5169616329999371,1,1,vertex,prac,3,1,0
D_EMO,1,13,1,0.7175056549999681,1,0,vertex,prac,3,1,0
D_EMO,1,14,1,0.6402981040000668,1,0,vertex,prac,3,1,0
D_EMO,1,15,1,0.5019892560001153,1,0,vertex,prac,3,1,0
D_EMO,1,16,1,0.763896799999884,1,0,vertex,prac,3,1,0
D_EMO,1,17,1,0.4972432399999889,1,0,vertex,prac,3,1,0
D_EMO,1,18,1,0.41336223200005406,0,1,vertex,prac,3,1,0
D_EMO,2,1,1,0.4574349520000851,1,0,vertex,prac,3,1,0
D_EMO,2,2,1,0.37434310999992704,0,1,vertex,prac,3,1,0
D_EMO,2,3,1,0.6414421090000815,1,0,vertex,prac,3,1,0
D_EMO,2,4,1,0.4419119359999968,1,1,vertex,prac,3,1,0
D_EMO,2,5,1,0.3547468619999563,1,0,vertex,prac,3,1,0
D_EMO,2,6,1,0.501327480999862,1,0,vertex,prac,3,1,0
D_EMO,2,7,1,0.4802495640001325,1,0,vertex,prac,3,1,0
D_EMO,2,8,1,0.41565814199998385,1,1,vertex,prac,3,1,0
D_EMO,2,9,1,0.274230536999994,1,0,vertex,prac,3,1,0
D_EMO,2,10,1,0.48169954399986636,1,0,vertex,prac,3,1,0
D_EMO,2,11,1,0.5086276950000865,1,1,vertex,prac,3,1,0
D_EMO,2,12,1,0.2979590120000921,1,0,vertex,prac,3,1,0
D_EMO,2,13,1,0.3544734110000718,1,0,vertex,prac,3,1,0
D_EMO,2,14,1,0.39776535799978774,1,1,vertex,prac,3,1,0
D_EMO,2,15,1,0.31751456999995753,1,0,vertex,prac,3,1,0
D_EMO,2,16,1,0.5728515129999323,1,1,vertex,prac,3,1,0
D_EMO,2,17,1,0.5884751240000696,1,0,vertex,prac,3,1,0
D_EMO,2,18,1,0.8483727670000007,1,1,vertex,prac,3,1,0
D_HTY,0,1,1,0.410762466,1,0,DAN,3,1,3,69
D_HTY,0,2,1,0.520339261,1,0,DAN,3,1,3,69
D_HTY,0,3,1,0.354101242,1,1,DAN,3,1,3,69
D_HTY,0,4,1,0.514156485,1,0,DAN,3,1,3,69
D_HTY,0,5,1,0.599279494,1,1,DAN,3,1,3,69
D_HTY,0,6,1,0.339571921,1,0,DAN,3,1,3,69
D_HTY,0,7,1,0.38943229,1,0,DAN,3,1,3,69
D_HTY,0,8,1,0.551023226,1,1,DAN,3,1,3,69
D_HTY,0,9,1,0.47966237,1,0,DAN,3,1,3,69
D_HTY,0,10,1,0.487750921,1,1,DAN,3,1,3,69
D_HTY,0,11,1,0.481464742,1,0,DAN,3,1,3,69
D_HTY,0,12,1,0.535500697,1,0,DAN,3,1,3,69
D_HTY,0,13,1,0.447086245,1,1,DAN,3,1,3,69
D_HTY,0,14,1,0.471036233,1,0,DAN,3,1,3,69
D_HTY,0,15,1,0.430951567,1,0,DAN,3,1,3,69
D_HTY,0,16,1,0.399528445,1,0,DAN,3,1,3,69
D_HTY,0,17,1,0.538135286,1,0,DAN,3,1,3,69
D_HTY,0,18,1,0.603780114,1,1,DAN,3,1,3,69
D_HTY,1,1,1,0.444667543,1,0,DAN,3,1,3,69
D_HTY,1,2,1,0.432220978,1,0,DAN,3,1,3,69
D_HTY,1,3,1,0.39071912,1,0,DAN,3,1,3,69
D_HTY,1,4,1,0.30195881,1,1,DAN,3,1,3,69
D_HTY,1,5,1,0.309248677,1,0,DAN,3,1,3,69
D_HTY,1,6,1,0.467530718,1,0,DAN,3,1,3,69
D_HTY,1,7,1,0.48066549,1,0,DAN,3,1,3,69
D_HTY,1,8,1,0.363308725,1,1,DAN,3,1,3,69
D_HTY,1,9,1,0.305696478,1,0,DAN,3,1,3,69
D_HTY,1,10,1,0.354089828,1,1,DAN,3,1,3,69
D_HTY,1,11,1,0.328518116,1,0,DAN,3,1,3,69
D_HTY,1,12,1,0.423870998,1,0,DAN,3,1,3,69
D_HTY,1,13,1,0.347906315,1,1,DAN,3,1,3,69
D_HTY,1,14,1,0.58031221,1,0,DAN,3,1,3,69
D_HTY,1,15,1,0.742309702,1,1,DAN,3,1,3,69
D_HTY,1,16,1,0.471374491,1,0,DAN,3,1,3,69
D_HTY,1,17,1,0.585638761,1,1,DAN,3,1,3,69
D_HTY,1,18,1,0.464406633,1,0,DAN,3,1,3,69
D_HTY,2,1,1,0.448601025,1,0,DAN,3,1,3,69
D_HTY,2,2,1,0.367997747,1,0,DAN,3,1,3,69
D_HTY,2,3,1,0.729931607,1,1,DAN,3,1,3,69
D_HTY,2,4,1,1.018181333,1,0,DAN,3,1,3,69
D_HTY,2,5,1,1.208178484,1,0,DAN,3,1,3,69
D_HTY,2,6,1,1.0651219,1,0,DAN,3,1,3,69
D_HTY,2,7,1,0.869586141,1,0,DAN,3,1,3,69
D_HTY,2,8,1,0.504409189,1,1,DAN,3,1,3,69
D_HTY,2,9,1,0.882123314,1,0,DAN,3,1,3,69
D_HTY,2,10,1,1.062339431,1,1,DAN,3,1,3,69
D_HTY,2,11,1,0.667018979,1,0,DAN,3,1,3,69
D_HTY,2,12,1,0.730590215,1,0,DAN,3,1,3,69
D_HTY,2,13,1,0.810363806,1,1,DAN,3,1,3,69
D_HTY,2,14,1,0.949134745,1,0,DAN,3,1,3,69
D_HTY,2,15,1,0.410037974,1,1,DAN,3,1,3,69
D_HTY,2,16,1,0.730195673,1,0,DAN,3,1,3,69
D_HTY,2,17,1,0.590905876,1,1,DAN,3,1,3,69
D_HTY,2,18,1,0.598532076,1,0,DAN,3,1,3,69
D_HTY,0,1,1,0.51058176099923,1,0,FPCNB,2,2,2,14
D_HTY,0,2,1,0.3877078519999486,1,0,FPCNB,2,2,2,14
D_HTY,0,3,1,0.4371264659994267,1,0,FPCNB,2,2,2,14
D_HTY,0,4,1,0.33246679799958656,1,0,FPCNB,2,2,2,14
D_HTY,0,5,1,0.3397947049998038,1,1,FPCNB,2,2,2,14
D_HTY,0,6,1,0.48413979199995083,1,0,FPCNB,2,2,2,14
D_HTY,0,7,1,0.37034861800020735,0,1,FPCNB,2,2,2,14
D_HTY,0,8,1,0.3421604249997472,1,0,FPCNB,2,2,2,14
D_HTY,0,9,1,0.5406174670006294,1,0,FPCNB,2,2,2,14
D_HTY,0,10,1,0.527031800000259,1,0,FPCNB,2,2,2,14
D_HTY,0,11,1,0.48779289100002643,1,1,FPCNB,2,2,2,14
D_HTY,0,12,1,0.4159602050003741,1,0,FPCNB,2,2,2,14
D_HTY,0,13,1,0.5267920229998708,1,1,FPCNB,2,2,2,14
D_HTY,0,14,1,0.532276904000355,1,0,FPCNB,2,2,2,14
D_HTY,0,15,1,0.42380503399999725,1,0,FPCNB,2,2,2,14
D_HTY,0,16,1,0.4621734500005914,1,1,FPCNB,2,2,2,14
D_HTY,0,17,1,0.41001025999958074,1,0,FPCNB,2,2,2,14
D_HTY,0,18,1,0.4713985270000194,1,1,FPCNB,2,2,2,14
D_HTY,1,1,1,0.41011696199984726,1,0,FPCNB,2,2,2,14
D_HTY,1,2,1,0.6255280490004225,1,0,FPCNB,2,2,2,14
D_HTY,1,3,1,0.5672305520001828,1,1,FPCNB,2,2,2,14
D_HTY,1,4,1,1.0507171879999078,1,0,FPCNB,2,2,2,14
D_HTY,1,5,1,0.753828641999462,1,0,FPCNB,2,2,2,14
D_HTY,1,6,1,0.7452546880003865,1,1,FPCNB,2,2,2,14
D_HTY,1,7,1,0.32881555299991305,1,0,FPCNB,2,2,2,14
D_HTY,1,8,1,0.48879976799980795,1,0,FPCNB,2,2,2,14
D_HTY,1,9,1,0.5704201110002032,1,0,FPCNB,2,2,2,14
D_HTY,1,10,1,0.4126845240007242,1,1,FPCNB,2,2,2,14
D_HTY,1,11,1,0.4287811679996594,1,0,FPCNB,2,2,2,14
D_HTY,1,12,1,0.6070746299992607,1,0,FPCNB,2,2,2,14
D_HTY,1,13,1,0.408333584000502,1,1,FPCNB,2,2,2,14
D_HTY,1,14,1,0.5972191659993769,1,0,FPCNB,2,2,2,14
D_HTY,1,15,1,0.6471198159997584,1,0,FPCNB,2,2,2,14
D_HTY,1,16,1,0.5547221450005964,1,1,FPCNB,2,2,2,14
D_HTY,1,17,1,0.639664831999653,1,0,FPCNB,2,2,2,14
D_HTY,1,18,1,0.6003025680001883,1,1,FPCNB,2,2,2,14
D_HTY,2,1,1,0.3503473840000879,0,1,FPCNB,2,2,2,14
D_HTY,2,2,1,0.970307239000249,1,0,FPCNB,2,2,2,14
D_HTY,2,3,1,1.0977490770001168,1,0,FPCNB,2,2,2,14
D_HTY,2,4,1,0.7050150519999079,1,1,FPCNB,2,2,2,14
D_HTY,2,5,1,0.7104172299996208,1,0,FPCNB,2,2,2,14
D_HTY,2,6,1,0.8085962240002118,1,0,FPCNB,2,2,2,14
D_HTY,2,7,1,0.5916297869998743,1,1,FPCNB,2,2,2,14
D_HTY,2,8,1,0.6823473319991535,1,0,FPCNB,2,2,2,14
D_HTY,2,9,1,0.7524534989997846,1,0,FPCNB,2,2,2,14
D_HTY,2,10,1,0.803536634000011,1,0,FPCNB,2,2,2,14
D_HTY,2,11,1,0.6055413499998394,1,1,FPCNB,2,2,2,14
D_HTY,2,12,1,0.9130798480000522,1,0,FPCNB,2,2,2,14
D_HTY,2,13,1,1.2147589630003495,1,0,FPCNB,2,2,2,14
D_HTY,2,14,1,0.45489218200054893,1,1,FPCNB,2,2,2,14
D_HTY,2,15,1,0.491007456999796,1,0,FPCNB,2,2,2,14
D_HTY,2,16,1,0.9028708919995552,0,1,FPCNB,2,2,2,14
D_HTY,2,17,1,0.6317625830006364,1,1,FPCNB,2,2,2,14
D_HTY,2,18,1,1.603461490999507,0,0,FPCNB,2,2,2,14
D_HTY,0,1,1,,0,0,vertex,1,1,1,0
D_HTY,0,2,1,0.3137159769999016,1,0,vertex,1,1,1,0
D_HTY,0,3,1,0.6543062050000117,1,1,vertex,1,1,1,0
D_HTY,0,4,1,0.49846302400010245,1,0,vertex,1,1,1,0
D_HTY,0,5,1,0.45290858999987904,1,1,vertex,1,1,1,0
D_HTY,0,6,1,0.5139335200001369,1,0,vertex,1,1,1,0
D_HTY,0,7,1,0.44985777500005497,1,0,vertex,1,1,1,0
D_HTY,0,8,1,0.4470515529997101,1,1,vertex,1,1,1,0
D_HTY,0,9,1,0.3902501590000611,1,0,vertex,1,1,1,0
D_HTY,0,10,1,0.45291306599983727,1,1,vertex,1,1,1,0
D_HTY,0,11,1,0.3502764049999314,1,0,vertex,1,1,1,0
D_HTY,0,12,1,0.3911906549997184,1,0,vertex,1,1,1,0
D_HTY,0,13,1,0.48400018800020916,1,1,vertex,1,1,1,0
D_HTY,0,14,1,0.45528544500029966,1,0,vertex,1,1,1,0
D_HTY,0,15,1,0.39384719500003484,1,0,vertex,1,1,1,0
D_HTY,0,16,1,0.38478457200017147,1,0,vertex,1,1,1,0
D_HTY,0,17,1,0.36389963200008424,1,0,vertex,1,1,1,0
D_HTY,0,18,1,0.31577947000005224,0,1,vertex,1,1,1,0
D_HTY,1,1,1,0.42693108599996776,1,0,vertex,1,1,1,0
D_HTY,1,2,1,0.9495223089998035,1,0,vertex,1,1,1,0
D_HTY,1,3,1,0.7430298499998571,1,0,vertex,1,1,1,0
D_HTY,1,4,1,0.6277763559996856,1,1,vertex,1,1,1,0
D_HTY,1,5,1,0.6697794800002157,1,0,vertex,1,1,1,0
D_HTY,1,6,1,0.6798028920002253,1,0,vertex,1,1,1,0
D_HTY,1,7,1,0.5945805300002576,1,0,vertex,1,1,1,0
D_HTY,1,8,1,0.49837500600006024,1,1,vertex,1,1,1,0
D_HTY,1,9,1,0.4162089120000019,1,0,vertex,1,1,1,0
D_HTY,1,10,1,0.39514394800016817,1,1,vertex,1,1,1,0
D_HTY,1,11,1,0.3952032480001435,1,0,vertex,1,1,1,0
D_HTY,1,12,1,0.597884052000154,1,0,vertex,1,1,1,0
D_HTY,1,13,1,0.5988990380001269,1,1,vertex,1,1,1,0
D_HTY,1,14,1,1.2238828170002307,1,0,vertex,1,1,1,0
D_HTY,1,15,1,0.6734027880002031,1,1,vertex,1,1,1,0
D_HTY,1,16,1,0.5393388859997685,1,0,vertex,1,1,1,0
D_HTY,1,17,1,0.6002754179999101,1,1,vertex,1,1,1,0
D_HTY,1,18,1,0.8009676400001808,1,0,vertex,1,1,1,0
D_HTY,2,1,1,0.4841143250000641,1,0,vertex,1,1,1,0
D_HTY,2,2,1,0.5035308920000716,1,0,vertex,1,1,1,0
D_HTY,2,3,1,0.6006625799996073,1,1,vertex,1,1,1,0
D_HTY,2,4,1,1.1379234850001012,1,0,vertex,1,1,1,0
D_HTY,2,5,1,0.6487519570000586,1,0,vertex,1,1,1,0
D_HTY,2,6,1,1.1901239399999213,0,0,vertex,1,1,1,0
D_HTY,2,7,1,0.9309130980000191,1,0,vertex,1,1,1,0
D_HTY,2,8,1,1.1901330579999012,0,1,vertex,1,1,1,0
D_HTY,2,9,1,0.7855048649998935,0,0,vertex,1,1,1,0
D_HTY,2,10,1,2.142151292000108,0,1,vertex,1,1,1,0
D_HTY,2,11,1,1.8659193499997855,1,0,vertex,1,1,1,0
D_HTY,2,12,1,1.279809920000389,1,0,vertex,1,1,1,0
D_HTY,2,13,1,0.6305895620002957,1,1,vertex,1,1,1,0
D_HTY,2,14,1,1.3540331929998501,1,0,vertex,1,1,1,0
D_HTY,2,15,1,1.4880253240003185,1,1,vertex,1,1,1,0
D_HTY,2,16,1,0.7838865420003458,1,0,vertex,1,1,1,0
D_HTY,2,17,1,1.6788902020002752,0,1,vertex,1,1,1,0
D_HTY,2,18,1,1.1082319840002128,1,0,vertex,1,1,1,0
D_HTY,2,1,2,0.6378672279997772,1,0,vertex,1,1,1,0
D_HTY,2,2,2,1.244714352000301,1,0,vertex,1,1,1,0
D_HTY,2,3,2,0.9520100959998672,1,1,vertex,1,1,1,0
D_HTY,2,4,2,1.3414767129997927,1,0,vertex,1,1,1,0
D_HTY,2,5,2,1.998416941999949,1,0,vertex,1,1,1,0
D_HTY,2,6,2,1.6268505170000935,1,0,vertex,1,1,1,0
D_HTY,2,7,2,1.4894893559999218,1,0,vertex,1,1,1,0
D_HTY,2,8,2,1.0963655049999943,1,1,vertex,1,1,1,0
D_HTY,2,9,2,2.1684732040002928,1,0,vertex,1,1,1,0
D_HTY,2,10,2,1.6278066439999748,1,1,vertex,1,1,1,0
D_HTY,2,11,2,1.0867910799997844,1,0,vertex,1,1,1,0
D_HTY,2,12,2,1.9624930420000055,1,0,vertex,1,1,1,0
D_HTY,2,13,2,0.8844396199997391,1,1,vertex,1,1,1,0
D_HTY,2,14,2,1.516824737999741,1,0,vertex,1,1,1,0
D_HTY,2,15,2,1.0493143979997512,1,1,vertex,1,1,1,0
D_HTY,2,16,2,0.9479039859998011,1,0,vertex,1,1,1,0
D_HTY,2,17,2,1.2219351220001045,0,1,vertex,1,1,1,0
D_HTY,2,18,2,1.1824072300000807,1,0,vertex,1,1,1,0
D_KIF,0,1,1,0.3267335699999876,1,0,DAN,prac,2,1,0
D_KIF,0,2,1,0.36353315100018335,1,0,DAN,prac,2,1,0
D_KIF,0,3,1,0.3355335720000312,1,0,DAN,prac,2,1,0
D_KIF,0,4,1,0.3671660370000609,1,0,DAN,prac,2,1,0
D_KIF,0,5,1,0.32104072499987524,1,1,DAN,prac,2,1,0
D_KIF,0,6,1,0.30564334999985476,1,0,DAN,prac,2,1,0
D_KIF,0,7,1,0.43397127100001853,1,1,DAN,prac,2,1,0
D_KIF,0,8,1,0.24728420200017354,1,0,DAN,prac,2,1,0
D_KIF,0,9,1,0.3257350399999268,1,0,DAN,prac,2,1,0
D_KIF,0,10,1,0.3079168539998136,1,0,DAN,prac,2,1,0
D_KIF,0,11,1,0.3146909090000918,1,1,DAN,prac,2,1,0
D_KIF,0,12,1,0.2601457330001722,1,0,DAN,prac,2,1,0
D_KIF,0,13,1,0.4818720170001143,1,1,DAN,prac,2,1,0
D_KIF,0,14,1,0.4537327059997551,1,0,DAN,prac,2,1,0
D_KIF,0,15,1,0.4190919739999117,1,0,DAN,prac,2,1,0
D_KIF,0,16,1,0.3454144479997012,1,1,DAN,prac,2,1,0
D_KIF,0,17,1,0.30092302000002746,1,0,DAN,prac,2,1,0
D_KIF,0,18,1,0.46473931399987123,1,1,DAN,prac,2,1,0
D_KIF,1,1,1,,0,0,DAN,prac,2,1,0
D_KIF,1,2,1,0.7339662940003109,1,0,DAN,prac,2,1,0
D_KIF,1,3,1,0.446340414000133,1,1,DAN,prac,2,1,0
D_KIF,1,4,1,0.360856123999838,1,0,DAN,prac,2,1,0
D_KIF,1,5,1,0.4923669769996195,1,0,DAN,prac,2,1,0
D_KIF,1,6,1,0.48316136099992946,1,1,DAN,prac,2,1,0
D_KIF,1,7,1,0.43820089800010464,1,0,DAN,prac,2,1,0
D_KIF,1,8,1,0.49124226699996143,1,0,DAN,prac,2,1,0
D_KIF,1,9,1,0.3605888369997956,1,0,DAN,prac,2,1,0
D_KIF,1,10,1,0.48789079600010155,1,1,DAN,prac,2,1,0
D_KIF,1,11,1,0.5296342940000613,1,0,DAN,prac,2,1,0
D_KIF,1,12,1,0.5670904070002507,1,0,DAN,prac,2,1,0
D_KIF,1,13,1,0.40976569599979484,0,1,DAN,prac,2,1,0
D_KIF,1,14,1,0.396119993999946,1,0,DAN,prac,2,1,0
D_KIF,1,15,1,0.7794390090002707,1,0,DAN,prac,2,1,0
D_KIF,1,16,1,0.3368978190001144,1,1,DAN,prac,2,1,0
D_KIF,1,17,1,0.40050919600025736,1,0,DAN,prac,2,1,0
D_KIF,1,18,1,0.43493306999971537,1,1,DAN,prac,2,1,0
D_KIF,2,1,1,0.49231407000024774,0,1,DAN,prac,2,1,0
D_KIF,2,2,1,0.2956672450000042,1,0,DAN,prac,2,1,0
D_KIF,2,3,1,0.625574203999804,1,0,DAN,prac,2,1,0
D_KIF,2,4,1,0.406575040000007,1,1,DAN,prac,2,1,0
D_KIF,2,5,1,0.4772847660001389,1,0,DAN,prac,2,1,0
D_KIF,2,6,1,0.43148290999988603,1,0,DAN,prac,2,1,0
D_KIF,2,7,1,0.6906636329999856,1,1,DAN,prac,2,1,0
D_KIF,2,8,1,0.49658239600012166,1,0,DAN,prac,2,1,0
D_KIF,2,9,1,0.5696874479999678,1,0,DAN,prac,2,1,0
D_KIF,2,10,1,0.5626287579998461,1,0,DAN,prac,2,1,0
D_KIF,2,11,1,0.40072080300024027,1,1,DAN,prac,2,1,0
D_KIF,2,12,1,0.41349419300013324,1,0,DAN,prac,2,1,0
D_KIF,2,13,1,0.41257658599988645,1,0,DAN,prac,2,1,0
D_KIF,2,14,1,0.3241154550000829,1,1,DAN,prac,2,1,0
D_KIF,2,15,1,0.34082882500024425,1,0,DAN,prac,2,1,0
D_KIF,2,16,1,0.6860017569997581,1,1,DAN,prac,2,1,0
D_KIF,2,17,1,0.38969425000004776,0,1,DAN,prac,2,1,0
D_KIF,2,18,1,0.638824508000198,0,0,DAN,prac,2,1,0
D_KIF,0,1,1,0.6096445279999898,1,0,FPCNB,3,3,3,14
D_KIF,0,2,1,0.3090340170001582,1,0,FPCNB,3,3,3,14
D_KIF,0,3,1,0.297955076001017,1,1,FPCNB,3,3,3,14
D_KIF,0,4,1,0.29535225899962825,1,0,FPCNB,3,3,3,14
D_KIF,0,5,1,0.2913558500004001,1,1,FPCNB,3,3,3,14
D_KIF,0,6,1,0.3714973349997308,1,0,FPCNB,3,3,3,14
D_KIF,0,7,1,0.3071200600006705,1,1,FPCNB,3,3,3,14
D_KIF,0,8,1,0.3256968780005991,1,0,FPCNB,3,3,3,14
D_KIF,0,9,1,0.33105886799967266,1,0,FPCNB,3,3,3,14
D_KIF,0,10,1,0.4192738570000074,1,0,FPCNB,3,3,3,14
D_KIF,0,11,1,0.28892465199896833,1,1,FPCNB,3,3,3,14
D_KIF,0,12,1,0.3606942499991419,1,0,FPCNB,3,3,3,14
D_KIF,0,13,1,0.33937505799985956,1,0,FPCNB,3,3,3,14
D_KIF,0,14,1,0.383727540000109,1,0,FPCNB,3,3,3,14
D_KIF,0,15,1,0.3405789200005529,1,0,FPCNB,3,3,3,14
D_KIF,0,16,1,0.3014343850009027,1,1,FPCNB,3,3,3,14
D_KIF,0,17,1,0.29412588299965137,1,0,FPCNB,3,3,3,14
D_KIF,0,18,1,0.26307946399901994,1,1,FPCNB,3,3,3,14
D_KIF,1,1,1,0.2720309479991556,1,0,FPCNB,3,3,3,14
D_KIF,1,2,1,0.31575741300002846,1,0,FPCNB,3,3,3,14
D_KIF,1,3,1,0.3402038759995776,1,1,FPCNB,3,3,3,14
D_KIF,1,4,1,0.2850140549999196,1,0,FPCNB,3,3,3,14
D_KIF,1,5,1,0.3585671429991635,1,0,FPCNB,3,3,3,14
D_KIF,1,6,1,0.34931876299924625,1,1,FPCNB,3,3,3,14
D_KIF,1,7,1,0.380502140000317,1,0,FPCNB,3,3,3,14
D_KIF,1,8,1,0.44790599800035125,1,1,FPCNB,3,3,3,14
D_KIF,1,9,1,0.30295427800047037,1,0,FPCNB,3,3,3,14
D_KIF,1,10,1,0.41005864399994607,1,1,FPCNB,3,3,3,14
D_KIF,1,11,1,0.2958038699998724,1,0,FPCNB,3,3,3,14
D_KIF,1,12,1,0.22099138000157836,0,1,FPCNB,3,3,3,14
D_KIF,1,13,1,0.3134312959991803,1,0,FPCNB,3,3,3,14
D_KIF,1,14,1,0.41720209199957026,1,0,FPCNB,3,3,3,14
D_KIF,1,15,1,0.3767049899997801,1,0,FPCNB,3,3,3,14
D_KIF,1,16,1,0.395017105000079,1,0,FPCNB,3,3,3,14
D_KIF,1,17,1,0.37389153000003716,1,0,FPCNB,3,3,3,14
D_KIF,1,18,1,0.34188553700005286,1,1,FPCNB,3,3,3,14
D_KIF,2,1,1,0.2686545529995783,1,0,FPCNB,3,3,3,14
D_KIF,2,2,1,0.2530430470014835,0,1,FPCNB,3,3,3,14
D_KIF,2,3,1,0.3652571259990509,1,0,FPCNB,3,3,3,14
D_KIF,2,4,1,0.3628104150011495,1,1,FPCNB,3,3,3,14
D_KIF,2,5,1,0.2524057899991021,1,0,FPCNB,3,3,3,14
D_KIF,2,6,1,0.3642110560012952,1,0,FPCNB,3,3,3,14
D_KIF,2,7,1,0.43884442200032936,1,0,FPCNB,3,3,3,14
D_KIF,2,8,1,0.40116476000002876,1,1,FPCNB,3,3,3,14
D_KIF,2,9,1,0.2852011599989055,1,0,FPCNB,3,3,3,14
D_KIF,2,10,1,0.36046549000093364,1,0,FPCNB,3,3,3,14
D_KIF,2,11,1,0.30387772299945937,1,1,FPCNB,3,3,3,14
D_KIF,2,12,1,0.3481501579990436,1,0,FPCNB,3,3,3,14
D_KIF,2,13,1,0.32783692900011374,1,0,FPCNB,3,3,3,14
D_KIF,2,14,1,0.6434816040000442,1,1,FPCNB,3,3,3,14
D_KIF,2,15,1,0.31246816999919247,1,0,FPCNB,3,3,3,14
D_KIF,2,16,1,0.2807290920009109,0,1,FPCNB,3,3,3,14
D_KIF,2,17,1,0.4560638849998213,1,0,FPCNB,3,3,3,14
D_KIF,2,18,1,0.32665090699993016,1,1,FPCNB,3,3,3,14
D_KIF,0,1,1,0.4778452279999783,1,0,vertex,prac,1,2,7
D_KIF,0,2,1,0.41931046700005936,1,0,vertex,prac,1,2,7
D_KIF,0,3,1,0.5570166400000289,1,1,vertex,prac,1,2,7
D_KIF,0,4,1,0.3350892879998355,1,0,vertex,prac,1,2,7
D_KIF,0,5,1,0.36757978499986166,1,1,vertex,prac,1,2,7
D_KIF,0,6,1,0.28508734899992305,1,0,vertex,prac,1,2,7
D_KIF,0,7,1,0.3190350310001122,1,0,vertex,prac,1,2,7
D_KIF,0,8,1,0.32999560199982625,1,1,vertex,prac,1,2,7
D_KIF,0,9,1,0.3424516309999035,1,0,vertex,prac,1,2,7
D_KIF,0,10,1,0.3262391620000926,1,1,vertex,prac,1,2,7
D_KIF,0,11,1,0.3240534999999909,1,0,vertex,prac,1,2,7
D_KIF,0,12,1,0.34771402500018667,1,0,vertex,prac,1,2,7
D_KIF,0,13,1,0.321562983999911,1,1,vertex,prac,1,2,7
D_KIF,0,14,1,0.3044345099999646,1,0,vertex,prac,1,2,7
D_KIF,0,15,1,0.32386395699995774,1,0,vertex,prac,1,2,7
D_KIF,0,16,1,0.34073491999993166,1,0,vertex,prac,1,2,7
D_KIF,0,17,1,0.3723364039999524,1,0,vertex,prac,1,2,7
D_KIF,0,18,1,0.38398884999992333,1,1,vertex,prac,1,2,7
D_KIF,1,1,1,0.590271131999998,1,0,vertex,prac,1,2,7
D_KIF,1,2,1,0.8621984780002094,1,0,vertex,prac,1,2,7
D_KIF,1,3,1,0.36708550000003015,1,0,vertex,prac,1,2,7
D_KIF,1,4,1,0.47625095200010037,1,1,vertex,prac,1,2,7
D_KIF,1,5,1,0.3451882760000444,1,0,vertex,prac,1,2,7
D_KIF,1,6,1,0.35831980000011754,1,0,vertex,prac,1,2,7
D_KIF,1,7,1,0.3512620980000065,1,0,vertex,prac,1,2,7
D_KIF,1,8,1,0.7800275649997275,1,1,vertex,prac,1,2,7
D_KIF,1,9,1,0.500573796000026,1,0,vertex,prac,1,2,7
D_KIF,1,10,1,0.3780918180000299,1,1,vertex,prac,1,2,7
D_KIF,1,11,1,0.3947366279999187,1,0,vertex,prac,1,2,7
D_KIF,1,12,1,0.37846843999977864,1,0,vertex,prac,1,2,7
D_KIF,1,13,1,0.49425672200004556,1,1,vertex,prac,1,2,7
D_KIF,1,14,1,0.36223568800005523,1,0,vertex,prac,1,2,7
D_KIF,1,15,1,0.44571197599998413,1,1,vertex,prac,1,2,7
D_KIF,1,16,1,0.3816414349998922,1,0,vertex,prac,1,2,7
D_KIF,1,17,1,0.361288697999953,1,1,vertex,prac,1,2,7
D_KIF,1,18,1,0.3259603100000277,1,0,vertex,prac,1,2,7
D_KIF,2,1,1,0.27210820400023294,1,0,vertex,prac,1,2,7
D_KIF,2,2,1,0.39818706699998074,1,0,vertex,prac,1,2,7
D_KIF,2,3,1,0.40849303999993936,1,1,vertex,prac,1,2,7
D_KIF,2,4,1,0.5351093670001319,1,0,vertex,prac,1,2,7
D_KIF,2,5,1,0.4575620800001161,1,0,vertex,prac,1,2,7
D_KIF,2,6,1,0.5046804079997855,1,0,vertex,prac,1,2,7
D_KIF,2,7,1,0.6649810459998662,1,0,vertex,prac,1,2,7
D_KIF,2,8,1,0.6149046460000136,1,1,vertex,prac,1,2,7
D_KIF,2,9,1,0.4374521539998568,1,0,vertex,prac,1,2,7
D_KIF,2,10,1,0.31247671599976456,0,1,vertex,prac,1,2,7
D_KIF,2,11,1,0.4695624310002131,1,0,vertex,prac,1,2,7
D_KIF,2,12,1,0.5019201300001441,1,0,vertex,prac,1,2,7
D_KIF,2,13,1,0.35927829599995675,1,1,vertex,prac,1,2,7
D_KIF,2,14,1,0.4335721620000186,1,0,vertex,prac,1,2,7
D_KIF,2,15,1,0.4111942870003986,1,1,vertex,prac,1,2,7
D_KIF,2,16,1,0.326571893000164,1,0,vertex,prac,1,2,7
D_KIF,2,17,1,0.34447818000035113,0,1,vertex,prac,1,2,7
D_KIF,2,18,1,0.5251236819999576,1,0,vertex,prac,1,2,7
D_KUR,0,1,1,0.5384356199992908,1,0,DAN,2,1,2,7
D_KUR,0,2,1,0.32385496999995667,1,0,DAN,2,1,2,7
D_KUR,0,3,1,0.332827289999841,1,1,DAN,2,1,2,7
D_KUR,0,4,1,0.37692795700058923,1,0,DAN,2,1,2,7
D_KUR,0,5,1,0.3225497200000973,1,1,DAN,2,1,2,7
D_KUR,0,6,1,0.62487121400045,1,0,DAN,2,1,2,7
D_KUR,0,7,1,0.5004395699997986,1,0,DAN,2,1,2,7
D_KUR,0,8,1,0.29768473300100595,1,1,DAN,2,1,2,7
D_KUR,0,9,1,0.36078300299959665,1,0,DAN,2,1,2,7
D_KUR,0,10,1,0.5115727519987558,1,1,DAN,2,1,2,7
D_KUR,0,11,1,0.313607559999582,1,0,DAN,2,1,2,7
D_KUR,0,12,1,0.3837331129998347,1,0,DAN,2,1,2,7
D_KUR,0,13,1,0.3500893330001418,1,1,DAN,2,1,2,7
D_KUR,0,14,1,0.2803384280014143,1,0,DAN,2,1,2,7
D_KUR,0,15,1,0.42800518200056104,1,0,DAN,2,1,2,7
D_KUR,0,16,1,0.4504177359995083,1,0,DAN,2,1,2,7
D_KUR,0,17,1,0.4004683250004746,1,0,DAN,2,1,2,7
D_KUR,0,18,1,0.3370214299993677,1,1,DAN,2,1,2,7
D_KUR,1,1,1,0.34032957999988867,1,0,DAN,2,1,2,7
D_KUR,1,2,1,0.341490941000302,1,0,DAN,2,1,2,7
D_KUR,1,3,1,0.3693223139998736,1,0,DAN,2,1,2,7
D_KUR,1,4,1,0.34690790899912827,1,1,DAN,2,1,2,7
D_KUR,1,5,1,0.2903802889995859,1,0,DAN,2,1,2,7
D_KUR,1,6,1,0.3912457219994394,1,0,DAN,2,1,2,7
D_KUR,1,7,1,0.39780207999865524,1,0,DAN,2,1,2,7
D_KUR,1,8,1,0.37367614200047683,1,1,DAN,2,1,2,7
D_KUR,1,9,1,0.2654044470000372,1,0,DAN,2,1,2,7
D_KUR,1,10,1,0.41197687499879976,1,1,DAN,2,1,2,7
D_KUR,1,11,1,0.3334700689993042,1,0,DAN,2,1,2,7
D_KUR,1,12,1,0.33912370299913164,1,0,DAN,2,1,2,7
D_KUR,1,13,1,0.5556832319998648,1,1,DAN,2,1,2,7
D_KUR,1,14,1,0.26504110699897865,1,0,DAN,2,1,2,7
D_KUR,1,15,1,0.3951262600003247,1,1,DAN,2,1,2,7
D_KUR,1,16,1,0.29530555000019376,1,0,DAN,2,1,2,7
D_KUR,1,17,1,0.3228379699994548,1,1,DAN,2,1,2,7
D_KUR,1,18,1,0.25118396899961226,1,0,DAN,2,1,2,7
D_KUR,2,1,1,0.4409485760006646,1,0,DAN,2,1,2,7
D_KUR,2,2,1,0.4804670180001267,1,0,DAN,2,1,2,7
D_KUR,2,3,1,0.3541977400000178,1,1,DAN,2,1,2,7
D_KUR,2,4,1,0.30822020000050543,1,0,DAN,2,1,2,7
D_KUR,2,5,1,0.4538921029998164,1,0,DAN,2,1,2,7
D_KUR,2,6,1,0.45520039800067025,1,0,DAN,2,1,2,7
D_KUR,2,7,1,0.4044981290007854,1,0,DAN,2,1,2,7
D_KUR,2,8,1,0.4979859100003523,1,1,DAN,2,1,2,7
D_KUR,2,9,1,0.38561175299946626,1,0,DAN,2,1,2,7
D_KUR,2,10,1,0.601295743999799,1,1,DAN,2,1,2,7
D_KUR,2,11,1,0.36354033700081345,1,0,DAN,2,1,2,7
D_KUR,2,12,1,0.43979695800044283,1,0,DAN,2,1,2,7
D_KUR,2,13,1,0.3684164129990677,1,1,DAN,2,1,2,7
D_KUR,2,14,1,0.368736151000121,1,0,DAN,2,1,2,7
D_KUR,2,15,1,0.4094568000000436,1,1,DAN,2,1,2,7
D_KUR,2,16,1,0.2500303300002997,1,0,DAN,2,1,2,7
D_KUR,2,17,1,0.4039899979998154,0,1,DAN,2,1,2,7
D_KUR,2,18,1,0.6307598160001362,1,0,DAN,2,1,2,7
D_KUR,0,1,1,0.5799093980003818,1,0,FPCNB,1,2,1,0
D_KUR,0,2,1,0.461335517000407,1,0,FPCNB,1,2,1,0
D_KUR,0,3,1,0.3637055640010658,1,0,FPCNB,1,2,1,0
D_KUR,0,4,1,0.37587478200111946,1,0,FPCNB,1,2,1,0
D_KUR,0,5,1,0.36734173000149895,1,1,FPCNB,1,2,1,0
D_KUR,0,6,1,0.3434476670008735,1,0,FPCNB,1,2,1,0
D_KUR,0,7,1,0.3800186409989692,1,1,FPCNB,1,2,1,0
D_KUR,0,8,1,0.33716491799896176,1,0,FPCNB,1,2,1,0
D_KUR,0,9,1,0.3869266060009977,1,0,FPCNB,1,2,1,0
D_KUR,0,10,1,0.3596440999990591,1,0,FPCNB,1,2,1,0
D_KUR,0,11,1,0.5121456270007911,1,1,FPCNB,1,2,1,0
D_KUR,0,12,1,0.5178571509986796,1,0,FPCNB,1,2,1,0
D_KUR,0,13,1,0.3825676919987018,1,1,FPCNB,1,2,1,0
D_KUR,0,14,1,0.35019722300057765,1,0,FPCNB,1,2,1,0
D_KUR,0,15,1,0.33405563900123525,1,0,FPCNB,1,2,1,0
D_KUR,0,16,1,0.435455697001089,1,1,FPCNB,1,2,1,0
D_KUR,0,17,1,0.2822059820009599,1,0,FPCNB,1,2,1,0
D_KUR,0,18,1,0.31788217699977395,1,1,FPCNB,1,2,1,0
D_KUR,1,1,1,0.37910430500051007,1,0,FPCNB,1,2,1,0
D_KUR,1,2,1,0.4359543720001966,1,0,FPCNB,1,2,1,0
D_KUR,1,3,1,0.3100075520014798,1,1,FPCNB,1,2,1,0
D_KUR,1,4,1,0.3586451900009706,1,0,FPCNB,1,2,1,0
D_KUR,1,5,1,0.36312103000091156,1,0,FPCNB,1,2,1,0
D_KUR,1,6,1,0.3691383189998305,1,1,FPCNB,1,2,1,0
D_KUR,1,7,1,0.37178374199902464,1,0,FPCNB,1,2,1,0
D_KUR,1,8,1,0.3613145880008233,1,0,FPCNB,1,2,1,0
D_KUR,1,9,1,0.3961758370005555,1,0,FPCNB,1,2,1,0
D_KUR,1,10,1,0.35809411499940325,1,1,FPCNB,1,2,1,0
D_KUR,1,11,1,0.35268198499943537,1,0,FPCNB,1,2,1,0
D_KUR,1,12,1,0.5464400520013442,1,0,FPCNB,1,2,1,0
D_KUR,1,13,1,0.35616397699959634,1,1,FPCNB,1,2,1,0
D_KUR,1,14,1,0.2823879269999452,1,0,FPCNB,1,2,1,0
D_KUR,1,15,1,0.4436491240012401,1,0,FPCNB,1,2,1,0
D_KUR,1,16,1,0.345415232999585,1,1,FPCNB,1,2,1,0
D_KUR,1,17,1,0.3198673390015756,1,0,FPCNB,1,2,1,0
D_KUR,1,18,1,0.30884317200070655,0,1,FPCNB,1,2,1,0
D_KUR,2,1,1,0.4837598350004555,0,1,FPCNB,1,2,1,0
D_KUR,2,2,1,0.5536511900008918,1,0,FPCNB,1,2,1,0
D_KUR,2,3,1,0.4110355620014161,1,0,FPCNB,1,2,1,0
D_KUR,2,4,1,0.30627044799985015,1,1,FPCNB,1,2,1,0
D_KUR,2,5,1,0.3980851819997042,1,0,FPCNB,1,2,1,0
D_KUR,2,6,1,0.5134084059991437,0,0,FPCNB,1,2,1,0
D_KUR,2,7,1,0.5350508419996913,1,1,FPCNB,1,2,1,0
D_KUR,2,8,1,0.37949365500026033,1,0,FPCNB,1,2,1,0
D_KUR,2,9,1,0.4338489950005169,1,0,FPCNB,1,2,1,0
D_KUR,2,10,1,0.44196550299966475,1,0,FPCNB,1,2,1,0
D_KUR,2,11,1,0.33449334500073746,1,1,FPCNB,1,2,1,0
D_KUR,2,12,1,0.37726901800124324,1,0,FPCNB,1,2,1,0
D_KUR,2,13,1,0.3888133700002072,1,0,FPCNB,1,2,1,0
D_KUR,2,14,1,0.38179049999962444,1,1,FPCNB,1,2,1,0
D_KUR,2,15,1,0.41512856900044426,1,0,FPCNB,1,2,1,0
D_KUR,2,16,1,1.032336218000637,0,1,FPCNB,1,2,1,0
D_KUR,2,17,1,0.7018351159986196,1,1,FPCNB,1,2,1,0
D_KUR,2,18,1,0.45494700699964596,0,0,FPCNB,1,2,1,0
D_KUR,0,1,1,0.6139762999991945,1,0,vertex,prac,3,3,14
D_KUR,0,2,1,0.27950021399919933,1,0,vertex,prac,3,3,14
D_KUR,0,3,1,0.4749046790002467,1,1,vertex,prac,3,3,14
D_KUR,0,4,1,0.3262151830003859,1,0,vertex,prac,3,3,14
D_KUR,0,5,1,0.34187207499962824,1,1,vertex,prac,3,3,14
D_KUR,0,6,1,0.33777954500146734,1,0,vertex,prac,3,3,14
D_KUR,0,7,1,0.3520565679991705,1,1,vertex,prac,3,3,14
D_KUR,0,8,1,0.2977185340005235,1,0,vertex,prac,3,3,14
D_KUR,0,9,1,0.36682548300086637,1,0,vertex,prac,3,3,14
D_KUR,0,10,1,0.3773662380008318,1,0,vertex,prac,3,3,14
D_KUR,0,11,1,0.416918662000171,1,1,vertex,prac,3,3,14
D_KUR,0,12,1,0.3269163999993907,1,0,vertex,prac,3,3,14
D_KUR,0,13,1,0.3640294400011044,1,0,vertex,prac,3,3,14
D_KUR,0,14,1,0.4270396579995577,1,0,vertex,prac,3,3,14
D_KUR,0,15,1,0.43261125199933304,1,0,vertex,prac,3,3,14
D_KUR,0,16,1,0.38361916599933465,1,1,vertex,prac,3,3,14
D_KUR,0,17,1,0.30729189200064866,1,0,vertex,prac,3,3,14
D_KUR,0,18,1,0.4316030329991918,1,1,vertex,prac,3,3,14
D_KUR,1,1,1,0.2615853280003648,1,0,vertex,prac,3,3,14
D_KUR,1,2,1,0.37937141799920937,1,0,vertex,prac,3,3,14
D_KUR,1,3,1,0.39146895600060816,1,1,vertex,prac,3,3,14
D_KUR,1,4,1,0.3008350199997949,1,0,vertex,prac,3,3,14
D_KUR,1,5,1,0.43521226799930446,1,0,vertex,prac,3,3,14
D_KUR,1,6,1,0.39830303199960326,1,1,vertex,prac,3,3,14
D_KUR,1,7,1,0.38567311899896595,1,0,vertex,prac,3,3,14
D_KUR,1,8,1,0.8352010419985163,1,1,vertex,prac,3,3,14
D_KUR,1,9,1,0.3274853950006218,1,0,vertex,prac,3,3,14
D_KUR,1,10,1,0.6005940079994616,1,1,vertex,prac,3,3,14
D_KUR,1,11,1,0.31405697999980475,1,0,vertex,prac,3,3,14
D_KUR,1,12,1,0.3730667910003831,1,1,vertex,prac,3,3,14
D_KUR,1,13,1,0.28374813700065715,1,0,vertex,prac,3,3,14
D_KUR,1,14,1,0.43987970399939513,1,0,vertex,prac,3,3,14
D_KUR,1,15,1,0.4258513419990777,1,0,vertex,prac,3,3,14
D_KUR,1,16,1,0.45567945999937365,1,0,vertex,prac,3,3,14
D_KUR,1,17,1,0.550353943999653,1,0,vertex,prac,3,3,14
D_KUR,1,18,1,0.4361714149999898,1,1,vertex,prac,3,3,14
D_KUR,2,1,1,0.28772632899926975,1,0,vertex,prac,3,3,14
D_KUR,2,2,1,0.2832031599991751,0,1,vertex,prac,3,3,14
D_KUR,2,3,1,0.37144008799987205,1,0,vertex,prac,3,3,14
D_KUR,2,4,1,0.3849974739987374,1,1,vertex,prac,3,3,14
D_KUR,2,5,1,0.3970296020015667,1,0,vertex,prac,3,3,14
D_KUR,2,6,1,0.3991653880002559,1,0,vertex,prac,3,3,14
D_KUR,2,7,1,0.38568951499837567,1,0,vertex,prac,3,3,14
D_KUR,2,8,1,0.3762999350001337,1,1,vertex,prac,3,3,14
D_KUR,2,9,1,0.286381584000992,1,0,vertex,prac,3,3,14
D_KUR,2,10,1,0.5007409820009343,1,0,vertex,prac,3,3,14
D_KUR,2,11,1,0.36747710700001335,1,1,vertex,prac,3,3,14
D_KUR,2,12,1,0.3656351949994132,1,0,vertex,prac,3,3,14
D_KUR,2,13,1,0.403854408999905,1,0,vertex,prac,3,3,14
D_KUR,2,14,1,0.3258904900012567,1,1,vertex,prac,3,3,14
D_KUR,2,15,1,0.2936746129998937,1,0,vertex,prac,3,3,14
D_KUR,2,16,1,0.350567735000368,1,1,vertex,prac,3,3,14
D_KUR,2,17,1,0.4854994590004935,1,0,vertex,prac,3,3,14
D_KUR,2,18,1,0.54602996200083,0,1,vertex,prac,3,3,14
D_OAC,0,1,1,2.260235649999231,0,0,DAN,1,3,1,0
D_OAC,0,2,1,1.7931607339996845,0,0,DAN,1,3,1,0
D_OAC,0,3,1,,0,1,DAN,1,3,1,0
D_OAC,0,4,1,0.5893744509994576,1,0,DAN,1,3,1,0
D_OAC,0,5,1,0.5728672400000505,1,1,DAN,1,3,1,0
D_OAC,0,6,1,0.3342559339998843,1,0,DAN,1,3,1,0
D_OAC,0,7,1,0.3451067050009442,1,1,DAN,1,3,1,0
D_OAC,0,8,1,0.6457038210010069,1,0,DAN,1,3,1,0
D_OAC,0,9,1,0.37283924899929843,1,0,DAN,1,3,1,0
D_OAC,0,10,1,0.609806688999015,1,0,DAN,1,3,1,0
D_OAC,0,11,1,0.3515127529990423,1,1,DAN,1,3,1,0
D_OAC,0,12,1,0.3229283000000578,1,0,DAN,1,3,1,0
D_OAC,0,13,1,0.43692739000107395,1,0,DAN,1,3,1,0
D_OAC,0,14,1,0.3636994449989288,1,0,DAN,1,3,1,0
D_OAC,0,15,1,0.3821903170010046,1,0,DAN,1,3,1,0
D_OAC,0,16,1,0.4967016890004743,1,1,DAN,1,3,1,0
D_OAC,0,17,1,0.3401287320011761,1,0,DAN,1,3,1,0
D_OAC,0,18,1,0.4192528380008298,1,1,DAN,1,3,1,0
D_OAC,1,1,1,0.30960970600062865,1,0,DAN,1,3,1,0
D_OAC,1,2,1,0.3871270130002813,0,0,DAN,1,3,1,0
D_OAC,1,3,1,0.44917544000054477,1,1,DAN,1,3,1,0
D_OAC,1,4,1,0.42471248299989384,1,0,DAN,1,3,1,0
D_OAC,1,5,1,0.5061163499995018,1,0,DAN,1,3,1,0
D_OAC,1,6,1,0.4430704650003463,0,1,DAN,1,3,1,0
D_OAC,1,7,1,0.44340605700017477,1,0,DAN,1,3,1,0
D_OAC,1,8,1,0.5250048389989388,1,1,DAN,1,3,1,0
D_OAC,1,9,1,0.3486059579990979,1,0,DAN,1,3,1,0
D_OAC,1,10,1,0.39511711800150806,1,1,DAN,1,3,1,0
D_OAC,1,11,1,0.3758507800012012,1,0,DAN,1,3,1,0
D_OAC,1,12,1,0.4454108300014923,0,1,DAN,1,3,1,0
D_OAC,1,13,1,0.5307603629989899,1,0,DAN,1,3,1,0
D_OAC,1,14,1,0.5092985979990772,1,0,DAN,1,3,1,0
D_OAC,1,15,1,0.37491607700030727,1,0,DAN,1,3,1,0
D_OAC,1,16,1,0.5796832600008202,0,0,DAN,1,3,1,0
D_OAC,1,17,1,0.39290849799908756,1,0,DAN,1,3,1,0
D_OAC,1,18,1,0.5404298899993591,1,1,DAN,1,3,1,0
D_OAC,2,1,1,0.278960048000954,1,0,DAN,1,3,1,0
D_OAC,2,2,1,0.40079482900000585,0,1,DAN,1,3,1,0
D_OAC,2,3,1,0.3779172369995649,1,0,DAN,1,3,1,0
D_OAC,2,4,1,0.31432077499994193,1,1,DAN,1,3,1,0
D_OAC,2,5,1,0.44168381500094256,1,0,DAN,1,3,1,0
D_OAC,2,6,1,0.5176535540012992,1,0,DAN,1,3,1,0
D_OAC,2,7,1,0.559171773998969,1,0,DAN,1,3,1,0
D_OAC,2,8,1,0.3821418009993067,1,1,DAN,1,3,1,0
D_OAC,2,9,1,0.4458041969992337,1,0,DAN,1,3,1,0
D_OAC,2,10,1,0.4783996140013187,1,0,DAN,1,3,1,0
D_OAC,2,11,1,0.34984534199975315,1,1,DAN,1,3,1,0
D_OAC,2,12,1,0.5543933670014667,1,0,DAN,1,3,1,0
D_OAC,2,13,1,0.4972503230001166,1,0,DAN,1,3,1,0
D_OAC,2,14,1,0.5208952270004374,1,1,DAN,1,3,1,0
D_OAC,2,15,1,0.3774501699990651,1,0,DAN,1,3,1,0
D_OAC,2,16,1,0.47540989899971464,1,1,DAN,1,3,1,0
D_OAC,2,17,1,0.4520095459993172,1,0,DAN,1,3,1,0
D_OAC,2,18,1,0.4589358049997827,1,1,DAN,1,3,1,0
D_OAC,0,1,1,1.3383633069997813,1,0,FPCNB,2,2,2,7
D_OAC,0,2,1,0.9763409540000794,1,0,FPCNB,2,2,2,7
D_OAC,0,3,1,0.3845544189998691,1,0,FPCNB,2,2,2,7
D_OAC,0,4,1,0.3664452819998587,1,0,FPCNB,2,2,2,7
D_OAC,0,5,1,0.40161306100026195,1,1,FPCNB,2,2,2,7
D_OAC,0,6,1,0.31715613999995185,1,0,FPCNB,2,2,2,7
D_OAC,0,7,1,0.4051328470000044,1,1,FPCNB,2,2,2,7
D_OAC,0,8,1,0.27565968499993687,1,0,FPCNB,2,2,2,7
D_OAC,0,9,1,0.3432832970001982,1,0,FPCNB,2,2,2,7
D_OAC,0,10,1,0.2498321160001069,1,0,FPCNB,2,2,2,7
D_OAC,0,11,1,0.5738572939999358,1,1,FPCNB,2,2,2,7
D_OAC,0,12,1,0.2775905129997227,1,0,FPCNB,2,2,2,7
D_OAC,0,13,1,0.3833767210003316,1,1,FPCNB,2,2,2,7
D_OAC,0,14,1,0.292369656000119,1,0,FPCNB,2,2,2,7
D_OAC,0,15,1,0.3539541959999042,1,0,FPCNB,2,2,2,7
D_OAC,0,16,1,0.42596606999995856,1,1,FPCNB,2,2,2,7
D_OAC,0,17,1,0.23417997300020943,1,0,FPCNB,2,2,2,7
D_OAC,0,18,1,0.46131816799970693,1,1,FPCNB,2,2,2,7
D_OAC,1,1,1,0.5202857420003966,1,0,FPCNB,2,2,2,7
D_OAC,1,2,1,0.4010922229999778,1,0,FPCNB,2,2,2,7
D_OAC,1,3,1,0.6019119539996609,1,1,FPCNB,2,2,2,7
D_OAC,1,4,1,0.34118807700042453,1,0,FPCNB,2,2,2,7
D_OAC,1,5,1,0.43742134200010696,1,0,FPCNB,2,2,2,7
D_OAC,1,6,1,0.549481740000374,1,1,FPCNB,2,2,2,7
D_OAC,1,7,1,0.37580025700026454,1,0,FPCNB,2,2,2,7
D_OAC,1,8,1,0.4709545939999771,1,0,FPCNB,2,2,2,7
D_OAC,1,9,1,0.41901525200000833,1,0,FPCNB,2,2,2,7
D_OAC,1,10,1,0.9821920320000572,1,1,FPCNB,2,2,2,7
D_OAC,1,11,1,0.3038155750000442,1,0,FPCNB,2,2,2,7
D_OAC,1,12,1,0.402825828999994,1,0,FPCNB,2,2,2,7
D_OAC,1,13,1,0.38219212800004243,1,1,FPCNB,2,2,2,7
D_OAC,1,14,1,0.2505630929999825,1,0,FPCNB,2,2,2,7
D_OAC,1,15,1,0.44877380300022196,1,0,FPCNB,2,2,2,7
D_OAC,1,16,1,0.5144499999996697,1,1,FPCNB,2,2,2,7
D_OAC,1,17,1,0.6082990459999564,1,0,FPCNB,2,2,2,7
D_OAC,1,18,1,0.41625738599987017,1,1,FPCNB,2,2,2,7
D_OAC,2,1,1,0.42149516199970094,0,1,FPCNB,2,2,2,7
D_OAC,2,2,1,,0,0,FPCNB,2,2,2,7
D_OAC,2,3,1,0.3852497740003855,1,0,FPCNB,2,2,2,7
D_OAC,2,4,1,0.4396459079998749,0,1,FPCNB,2,2,2,7
D_OAC,2,5,1,0.5821587559998989,1,0,FPCNB,2,2,2,7
D_OAC,2,6,1,0.587940179999805,1,0,FPCNB,2,2,2,7
D_OAC,2,7,1,0.42281673000024966,1,1,FPCNB,2,2,2,7
D_OAC,2,8,1,0.37357301700012613,1,0,FPCNB,2,2,2,7
D_OAC,2,9,1,0.4122779479998826,1,0,FPCNB,2,2,2,7
D_OAC,2,10,1,0.47811496199983594,1,0,FPCNB,2,2,2,7
D_OAC,2,11,1,0.6595550100000764,1,1,FPCNB,2,2,2,7
D_OAC,2,12,1,0.4181231839997963,1,0,FPCNB,2,2,2,7
D_OAC,2,13,1,0.5736269569997603,1,0,FPCNB,2,2,2,7
D_OAC,2,14,1,0.6691046529999767,1,1,FPCNB,2,2,2,7
D_OAC,2,15,1,0.5155665349998344,1,0,FPCNB,2,2,2,7
D_OAC,2,16,1,0.5557059879997723,1,1,FPCNB,2,2,2,7
D_OAC,2,17,1,0.40004464599996936,0,1,FPCNB,2,2,2,7
D_OAC,2,18,1,0.5569735349999974,1,0,FPCNB,2,2,2,7
D_OAC,0,1,1,0.532223388,1,0,vertex,prac,1,3,14
D_OAC,0,2,1,0.41305498,1,0,vertex,prac,1,3,14
D_OAC,0,3,1,0.390484173,1,1,vertex,prac,1,3,14
D_OAC,0,4,1,0.451551605,1,0,vertex,prac,1,3,14
D_OAC,0,5,1,0.495608628,1,1,vertex,prac,1,3,14
D_OAC,0,6,1,0.392274315,1,0,vertex,prac,1,3,14
D_OAC,0,7,1,0.56557026,1,0,vertex,prac,1,3,14
D_OAC,0,8,1,0.376335024,1,1,vertex,prac,1,3,14
D_OAC,0,9,1,0.3649759,1,0,vertex,prac,1,3,14
D_OAC,0,10,1,0.410113556,1,1,vertex,prac,1,3,14
D_OAC,0,11,1,0.436007993,1,0,vertex,prac,1,3,14
D_OAC,0,12,1,0.363493457,1,0,vertex,prac,1,3,14
D_OAC,0,13,1,0.472384286,1,1,vertex,prac,1,3,14
D_OAC,0,14,1,0.325560444,1,0,vertex,prac,1,3,14
D_OAC,0,15,1,0.762168124,1,0,vertex,prac,1,3,14
D_OAC,0,16,1,0.441927778,1,0,vertex,prac,1,3,14
D_OAC,0,17,1,0.423914912,1,0,vertex,prac,1,3,14
D_OAC,0,18,1,0.513140152,1,1,vertex,prac,1,3,14
D_OAC,1,1,1,0.4672201,1,0,vertex,prac,1,3,14
D_OAC,1,2,1,0.578977473,1,0,vertex,prac,1,3,14
D_OAC,1,3,1,0.530340742,1,0,vertex,prac,1,3,14
D_OAC,1,4,1,1.657950124,1,1,vertex,prac,1,3,14
D_OAC,1,5,1,0.483626138,1,0,vertex,prac,1,3,14
D_OAC,1,6,1,0.39334646,1,0,vertex,prac,1,3,14
D_OAC,1,7,1,0.444666995,1,0,vertex,prac,1,3,14
D_OAC,1,8,1,0.348844175,1,1,vertex,prac,1,3,14
D_OAC,1,9,1,0.418650272,1,0,vertex,prac,1,3,14
D_OAC,1,10,1,0.562251783,1,1,vertex,prac,1,3,14
D_OAC,1,11,1,0.413871982,1,0,vertex,prac,1,3,14
D_OAC,1,12,1,0.393517004,1,0,vertex,prac,1,3,14
D_OAC,1,13,1,0.725844934,1,1,vertex,prac,1,3,14
D_OAC,1,14,1,0.448838123,1,0,vertex,prac,1,3,14
D_OAC,1,15,1,0.550702775,1,1,vertex,prac,1,3,14
D_OAC,1,16,1,0.363040863,1,0,vertex,prac,1,3,14
D_OAC,1,17,1,0.603715404,1,1,vertex,prac,1,3,14
D_OAC,1,18,1,0.395008694,1,0,vertex,prac,1,3,14
D_OAC,2,1,1,0.511988038,1,0,vertex,prac,1,3,14
D_OAC,2,2,1,0.365130346,1,0,vertex,prac,1,3,14
D_OAC,2,3,1,0.368898278,1,1,vertex,prac,1,3,14
D_OAC,2,4,1,0.405216594,1,0,vertex,prac,1,3,14
D_OAC,2,5,1,0.799417649,1,0,vertex,prac,1,3,14
D_OAC,2,6,1,1.039265192,1,0,vertex,prac,1,3,14
D_OAC,2,7,1,0.575938707,1,0,vertex,prac,1,3,14
D_OAC,2,8,1,0.355753795,1,1,vertex,prac,1,3,14
D_OAC,2,9,1,0.464699533,1,0,vertex,prac,1,3,14
D_OAC,2,10,1,0.471346463,1,1,vertex,prac,1,3,14
D_OAC,2,11,1,0.44484601,1,0,vertex,prac,1,3,14
D_OAC,2,12,1,0.480354036,1,0,vertex,prac,1,3,14
D_OAC,2,13,1,0.347455543,1,1,vertex,prac,1,3,14
D_OAC,2,14,1,0.572034566,1,0,vertex,prac,1,3,14
D_OAC,2,15,1,0.699003113,1,1,vertex,prac,1,3,14
D_OAC,2,16,1,0.584144228,1,0,vertex,prac,1,3,14
D_OAC,2,17,1,0.487571074,1,1,vertex,prac,1,3,14
D_OAC,2,18,1,0.42318121,1,0,vertex,prac,1,3,14
D_PEU,0,1,1,0.423000182,1,0,DAN,prac,2,3,21
D_PEU,0,2,1,0.427830626,1,0,DAN,prac,2,3,21
D_PEU,0,3,1,0.392590032,1,0,DAN,prac,2,3,21
D_PEU,0,4,1,0.458016167,1,0,DAN,prac,2,3,21
D_PEU,0,5,1,0.374608388,1,1,DAN,prac,2,3,21
D_PEU,0,6,1,0.312231696,1,0,DAN,prac,2,3,21
D_PEU,0,7,1,0.459231613,1,1,DAN,prac,2,3,21
D_PEU,0,8,1,0.358397461,1,0,DAN,prac,2,3,21
D_PEU,0,9,1,0.393422023,1,0,DAN,prac,2,3,21
D_PEU,0,10,1,0.377273746,1,0,DAN,prac,2,3,21
D_PEU,0,11,1,0.536229979,1,1,DAN,prac,2,3,21
D_PEU,0,12,1,0.427544681,1,0,DAN,prac,2,3,21
D_PEU,0,13,1,0.459061847,1,1,DAN,prac,2,3,21
D_PEU,0,14,1,0.370449306,1,0,DAN,prac,2,3,21
D_PEU,0,15,1,0.424428688,1,0,DAN,prac,2,3,21
D_PEU,0,16,1,0.515737598,1,1,DAN,prac,2,3,21
D_PEU,0,17,1,0.426198317,1,0,DAN,prac,2,3,21
D_PEU,0,18,1,0.56244628,1,1,DAN,prac,2,3,21
D_PEU,1,1,1,0.43286945,1,0,DAN,prac,2,3,21
D_PEU,1,2,1,0.532326505,1,0,DAN,prac,2,3,21
D_PEU,1,3,1,0.455922199,1,1,DAN,prac,2,3,21
D_PEU,1,4,1,0.492556265,1,0,DAN,prac,2,3,21
D_PEU,1,5,1,0.420143578,1,0,DAN,prac,2,3,21
D_PEU,1,6,1,0.678783857,1,1,DAN,prac,2,3,21
D_PEU,1,7,1,0.4487174,1,0,DAN,prac,2,3,21
D_PEU,1,8,1,0.441724687,1,0,DAN,prac,2,3,21
D_PEU,1,9,1,0.528762157,1,0,DAN,prac,2,3,21
D_PEU,1,10,1,0.692045528,1,1,DAN,prac,2,3,21
D_PEU,1,11,1,0.557198317,1,0,DAN,prac,2,3,21
D_PEU,1,12,1,0.59282194,1,0,DAN,prac,2,3,21
D_PEU,1,13,1,0.453703623,1,1,DAN,prac,2,3,21
D_PEU,1,14,1,0.517162147,1,0,DAN,prac,2,3,21
D_PEU,1,15,1,0.52748974,1,0,DAN,prac,2,3,21
D_PEU,1,16,1,0.539196801,1,1,DAN,prac,2,3,21
D_PEU,1,17,1,0.526721498,1,0,DAN,prac,2,3,21
D_PEU,1,18,1,0.594740363,1,1,DAN,prac,2,3,21
D_PEU,2,1,1,0.617396206,0,1,DAN,prac,2,3,21
D_PEU,2,2,1,0.376219195,1,0,DAN,prac,2,3,21
D_PEU,2,3,1,0.580247799,1,0,DAN,prac,2,3,21
D_PEU,2,4,1,0.68947816,1,1,DAN,prac,2,3,21
D_PEU,2,5,1,0.789356336,1,0,DAN,prac,2,3,21
D_PEU,2,6,1,0.666639754,1,0,DAN,prac,2,3,21
D_PEU,2,7,1,0.490424019,1,1,DAN,prac,2,3,21
D_PEU,2,8,1,0.427886872,1,0,DAN,prac,2,3,21
D_PEU,2,9,1,0.556672954,1,0,DAN,prac,2,3,21
D_PEU,2,10,1,0.512171232,1,0,DAN,prac,2,3,21
D_PEU,2,11,1,0.435305748,1,1,DAN,prac,2,3,21
D_PEU,2,12,1,0.61748344,1,0,DAN,prac,2,3,21
D_PEU,2,13,1,0.697843337,1,0,DAN,prac,2,3,21
D_PEU,2,14,1,1.197497318,1,1,DAN,prac,2,3,21
D_PEU,2,15,1,0.644546266,1,0,DAN,prac,2,3,21
D_PEU,2,16,1,1.444324694,1,1,DAN,prac,2,3,21
D_PEU,2,17,1,1.19688267,1,1,DAN,prac,2,3,21
D_PEU,2,18,1,0.98210798,1,0,DAN,prac,2,3,21
D_PEU,0,1,1,0.6050195959996927,1,0,FPCNB,prac,1,1,0
D_PEU,0,2,1,0.4910146399997757,1,0,FPCNB,prac,1,1,0
D_PEU,0,3,1,0.4644986700004665,1,1,FPCNB,prac,1,1,0
D_PEU,0,4,1,0.37448874400070054,1,0,FPCNB,prac,1,1,0
D_PEU,0,5,1,0.42466951999995217,1,1,FPCNB,prac,1,1,0
D_PEU,0,6,1,0.32389765799962333,1,0,FPCNB,prac,1,1,0
D_PEU,0,7,1,0.35817061200032185,1,0,FPCNB,prac,1,1,0
D_PEU,0,8,1,0.33073490999959176,1,1,FPCNB,prac,1,1,0
D_PEU,0,9,1,0.6496911869999167,1,0,FPCNB,prac,1,1,0
D_PEU,0,10,1,0.4294556200002262,1,1,FPCNB,prac,1,1,0
D_PEU,0,11,1,0.35664036300113366,1,0,FPCNB,prac,1,1,0
D_PEU,0,12,1,0.47426181199989514,1,0,FPCNB,prac,1,1,0
D_PEU,0,13,1,0.3679651870006637,1,1,FPCNB,prac,1,1,0
D_PEU,0,14,1,0.4102697519992944,1,0,FPCNB,prac,1,1,0
D_PEU,0,15,1,0.35197916200013424,1,0,FPCNB,prac,1,1,0
D_PEU,0,16,1,0.3473856529999466,1,0,FPCNB,prac,1,1,0
D_PEU,0,17,1,0.3391121820004628,1,0,FPCNB,prac,1,1,0
D_PEU,0,18,1,0.31718472200009273,1,1,FPCNB,prac,1,1,0
D_PEU,1,1,1,0.5998365359992022,1,0,FPCNB,prac,1,1,0
D_PEU,1,2,1,0.459514696000042,1,0,FPCNB,prac,1,1,0
D_PEU,1,3,1,0.4552749779995793,1,0,FPCNB,prac,1,1,0
D_PEU,1,4,1,0.4430828169988672,1,1,FPCNB,prac,1,1,0
D_PEU,1,5,1,0.32484475699857285,1,0,FPCNB,prac,1,1,0
D_PEU,1,6,1,0.41465628599871707,1,0,FPCNB,prac,1,1,0
D_PEU,1,7,1,0.36710687399863673,1,0,FPCNB,prac,1,1,0
D_PEU,1,8,1,0.41481856000064,1,1,FPCNB,prac,1,1,0
D_PEU,1,9,1,0.2970260199999757,1,0,FPCNB,prac,1,1,0
D_PEU,1,10,1,0.37738811999952304,1,1,FPCNB,prac,1,1,0
D_PEU,1,11,1,0.37507368399928964,1,0,FPCNB,prac,1,1,0
D_PEU,1,12,1,0.2939604919993144,1,0,FPCNB,prac,1,1,0
D_PEU,1,13,1,0.47218210300161445,1,1,FPCNB,prac,1,1,0
D_PEU,1,14,1,0.35628792799980147,1,0,FPCNB,prac,1,1,0
D_PEU,1,15,1,0.5152478960008011,1,1,FPCNB,prac,1,1,0
D_PEU,1,16,1,0.4411875420009892,1,0,FPCNB,prac,1,1,0
D_PEU,1,17,1,0.601217674999134,1,1,FPCNB,prac,1,1,0
D_PEU,1,18,1,0.46373750400016434,1,0,FPCNB,prac,1,1,0
D_PEU,2,1,1,0.30007806200046616,1,0,FPCNB,prac,1,1,0
D_PEU,2,2,1,0.5141022739990149,1,0,FPCNB,prac,1,1,0
D_PEU,2,3,1,0.6687904450009228,1,1,FPCNB,prac,1,1,0
D_PEU,2,4,1,0.8212387229996239,1,0,FPCNB,prac,1,1,0
D_PEU,2,5,1,1.2842086079999717,0,0,FPCNB,prac,1,1,0
D_PEU,2,6,1,0.8774778679999145,1,0,FPCNB,prac,1,1,0
D_PEU,2,7,1,0.9175954919992364,1,0,FPCNB,prac,1,1,0
D_PEU,2,8,1,1.1312572679998993,1,1,FPCNB,prac,1,1,0
D_PEU,2,9,1,0.8513480279998475,1,0,FPCNB,prac,1,1,0
D_PEU,2,10,1,1.46056924199911,1,1,FPCNB,prac,1,1,0
D_PEU,2,11,1,0.8540047129990853,1,0,FPCNB,prac,1,1,0
D_PEU,2,12,1,0.5055786470002204,1,0,FPCNB,prac,1,1,0
D_PEU,2,13,1,1.243277522000426,1,1,FPCNB,prac,1,1,0
D_PEU,2,14,1,0.8036251430003176,1,0,FPCNB,prac,1,1,0
D_PEU,2,15,1,1.3657077480002044,1,1,FPCNB,prac,1,1,0
D_PEU,2,16,1,0.8103573970001889,1,0,FPCNB,prac,1,1,0
D_PEU,2,17,1,0.77783777500008,1,1,FPCNB,prac,1,1,0
D_PEU,2,18,1,1.1032244130001345,1,0,FPCNB,prac,1,1,0
D_PEU,0,1,1,0.562618128,1,0,vertex,pre,3,2,7
D_PEU,0,2,1,0.459854497,1,0,vertex,pre,3,2,7
D_PEU,0,3,1,0.41187963,1,1,vertex,pre,3,2,7
D_PEU,0,4,1,0.318417482,1,0,vertex,pre,3,2,7
D_PEU,0,5,1,0.446303052,1,1,vertex,pre,3,2,7
D_PEU,0,6,1,0.400972975,1,0,vertex,pre,3,2,7
D_PEU,0,7,1,0.371827395,1,1,vertex,pre,3,2,7
D_PEU,0,8,1,0.354167394,1,0,vertex,pre,3,2,7
D_PEU,0,9,1,0.380029462,1,0,vertex,pre,3,2,7
D_PEU,0,10,1,0.404344457,1,0,vertex,pre,3,2,7
D_PEU,0,11,1,0.423383602,1,1,vertex,pre,3,2,7
D_PEU,0,12,1,0.400169062,1,0,vertex,pre,3,2,7
D_PEU,0,13,1,0.350592543,1,0,vertex,pre,3,2,7
D_PEU,0,14,1,0.373045213,1,0,vertex,pre,3,2,7
D_PEU,0,15,1,0.430751413,1,0,vertex,pre,3,2,7
D_PEU,0,16,1,0.393704655,1,1,vertex,pre,3,2,7
D_PEU,0,17,1,0.379471614,1,0,vertex,pre,3,2,7
D_PEU,0,18,1,0.37863692,1,1,vertex,pre,3,2,7
D_PEU,1,1,1,0.395757169,1,0,vertex,pre,3,2,7
D_PEU,1,2,1,0.461014996,1,0,vertex,pre,3,2,7
D_PEU,1,3,1,0.409158126,1,1,vertex,pre,3,2,7
D_PEU,1,4,1,0.400225002,1,0,vertex,pre,3,2,7
D_PEU,1,5,1,0.411501971,1,0,vertex,pre,3,2,7
D_PEU,1,6,1,0.399889243,1,1,vertex,pre,3,2,7
D_PEU,1,7,1,0.621876327,1,0,vertex,pre,3,2,7
D_PEU,1,8,1,0.587774077,1,1,vertex,pre,3,2,7
D_PEU,1,9,1,0.507960861,1,0,vertex,pre,3,2,7
D_PEU,1,10,1,0.486700377,1,1,vertex,pre,3,2,7
D_PEU,1,11,1,0.500563382,1,0,vertex,pre,3,2,7
D_PEU,1,12,1,0.503601206,1,1,vertex,pre,3,2,7
D_PEU,1,13,1,0.389098792,1,0,vertex,pre,3,2,7
D_PEU,1,14,1,0.370452122,1,0,vertex,pre,3,2,7
D_PEU,1,15,1,0.456184732,1,0,vertex,pre,3,2,7
D_PEU,1,16,1,0.420467945,1,0,vertex,pre,3,2,7
D_PEU,1,17,1,0.465271165,1,0,vertex,pre,3,2,7
D_PEU,1,18,1,0.44308424,1,1,vertex,pre,3,2,7
D_PEU,2,1,1,0.554897936,1,0,vertex,pre,3,2,7
D_PEU,2,2,1,0.331465913,0,1,vertex,pre,3,2,7
D_PEU,2,3,1,0.500152388,1,0,vertex,pre,3,2,7
D_PEU,2,4,1,0.396054196,1,1,vertex,pre,3,2,7
D_PEU,2,5,1,0.619737277,1,0,vertex,pre,3,2,7
D_PEU,2,6,1,0.636548535,1,0,vertex,pre,3,2,7
D_PEU,2,7,1,0.539820564,1,0,vertex,pre,3,2,7
D_PEU,2,8,1,0.751382429,1,1,vertex,pre,3,2,7
D_PEU,2,9,1,0.7348199,1,0,vertex,pre,3,2,7
D_PEU,2,10,1,0.523773724,1,0,vertex,pre,3,2,7
D_PEU,2,11,1,0.50058669,1,1,vertex,pre,3,2,7
D_PEU,2,12,1,0.617060448,1,0,vertex,pre,3,2,7
D_PEU,2,13,1,0.621061176,1,0,vertex,pre,3,2,7
D_PEU,2,14,1,0.560149922,1,1,vertex,pre,3,2,7
D_PEU,2,15,1,0.874175001,1,0,vertex,pre,3,2,7
D_PEU,2,16,1,0.471391605,1,1,vertex,pre,3,2,7
D_PEU,2,17,1,0.674502412,1,0,vertex,pre,3,2,7
D_PEU,2,18,1,0.478289353,1,1,vertex,pre,3,2,7
D_PYL,0,1,1,0.828235389999918,1,0,DAN,2,1,2,7
D_PYL,0,2,1,0.5687867820001884,1,0,DAN,2,1,2,7
D_PYL,0,3,1,0.5345974379999916,1,1,DAN,2,1,2,7
D_PYL,0,4,1,0.4994725720000588,1,0,DAN,2,1,2,7
D_PYL,0,5,1,0.5801699520000057,1,1,DAN,2,1,2,7
D_PYL,0,6,1,0.6175204720000238,1,0,DAN,2,1,2,7
D_PYL,0,7,1,0.4275893950000409,1,0,DAN,2,1,2,7
D_PYL,0,8,1,0.3514044350001768,1,1,DAN,2,1,2,7
D_PYL,0,9,1,0.43551629800003866,1,0,DAN,2,1,2,7
D_PYL,0,10,1,0.4214118120000876,1,1,DAN,2,1,2,7
D_PYL,0,11,1,0.410276918000136,1,0,DAN,2,1,2,7
D_PYL,0,12,1,0.810648232000176,1,0,DAN,2,1,2,7
D_PYL,0,13,1,0.3267591380001704,1,1,DAN,2,1,2,7
D_PYL,0,14,1,0.3833312960000512,1,0,DAN,2,1,2,7
D_PYL,0,15,1,1.1619748900000104,1,0,DAN,2,1,2,7
D_PYL,0,16,1,0.5561652129999857,1,0,DAN,2,1,2,7
D_PYL,0,17,1,0.3605502630000501,1,0,DAN,2,1,2,7
D_PYL,0,18,1,0.5634822540000641,1,1,DAN,2,1,2,7
D_PYL,1,1,1,0.4007380900000044,1,0,DAN,2,1,2,7
D_PYL,1,2,1,0.9614299479999318,1,0,DAN,2,1,2,7
D_PYL,1,3,1,0.8419035300000814,1,0,DAN,2,1,2,7
D_PYL,1,4,1,0.7380199499998525,1,1,DAN,2,1,2,7
D_PYL,1,5,1,1.4267800200000238,1,0,DAN,2,1,2,7
D_PYL,1,6,1,0.8616012249999585,0,0,DAN,2,1,2,7
D_PYL,1,7,1,0.9783502559998851,1,0,DAN,2,1,2,7
D_PYL,1,8,1,0.7807192320001377,1,1,DAN,2,1,2,7
D_PYL,1,9,1,0.7323792680001588,1,0,DAN,2,1,2,7
D_PYL,1,10,1,0.8954185370000687,1,1,DAN,2,1,2,7
D_PYL,1,11,1,,0,0,DAN,2,1,2,7
D_PYL,1,12,1,0.6903480800001489,1,0,DAN,2,1,2,7
D_PYL,1,13,1,1.0394018970000616,1,1,DAN,2,1,2,7
D_PYL,1,14,1,1.0361137869999766,1,0,DAN,2,1,2,7
D_PYL,1,15,1,0.9272538720001648,1,1,DAN,2,1,2,7
D_PYL,1,16,1,,0,0,DAN,2,1,2,7
D_PYL,1,17,1,0.7770963359998859,1,1,DAN,2,1,2,7
D_PYL,1,18,1,,0,0,DAN,2,1,2,7
D_PYL,2,1,1,,0,0,DAN,2,1,2,7
D_PYL,2,2,1,1.1892812920000324,1,0,DAN,2,1,2,7
D_PYL,2,3,1,0.7380078150001737,1,1,DAN,2,1,2,7
D_PYL,2,4,1,,0,0,DAN,2,1,2,7
D_PYL,2,5,1,,0,0,DAN,2,1,2,7
D_PYL,2,6,1,0.6189760029999434,0,0,DAN,2,1,2,7
D_PYL,2,7,1,,0,0,DAN,2,1,2,7
D_PYL,2,8,1,,0,1,DAN,2,1,2,7
D_PYL,2,9,1,0.6889972270000726,1,0,DAN,2,1,2,7
D_PYL,2,10,1,0.6305240870001398,1,1,DAN,2,1,2,7
D_PYL,2,11,1,0.45206089999987853,1,0,DAN,2,1,2,7
D_PYL,2,12,1,0.8847671769999579,1,0,DAN,2,1,2,7
D_PYL,2,13,1,0.7814431849999437,0,1,DAN,2,1,2,7
D_PYL,2,14,1,0.6618473749999794,0,0,DAN,2,1,2,7
D_PYL,2,15,1,0.7752052149999145,0,1,DAN,2,1,2,7
D_PYL,2,16,1,0.4388337479999791,0,0,DAN,2,1,2,7
D_PYL,2,17,1,0.602456476000043,0,1,DAN,2,1,2,7
D_PYL,2,18,1,0.81890521299988,1,0,DAN,2,1,2,7
D_PYL,2,1,2,,0,0,DAN,2,1,2,7
D_PYL,2,2,2,,0,0,DAN,2,1,2,7
D_PYL,2,3,2,0.6431160019999425,0,1,DAN,2,1,2,7
D_PYL,2,4,2,,0,0,DAN,2,1,2,7
D_PYL,2,5,2,,0,0,DAN,2,1,2,7
D_PYL,2,6,2,0.8712632510000731,0,0,DAN,2,1,2,7
D_PYL,2,7,2,1.2667068939999808,1,0,DAN,2,1,2,7
D_PYL,2,8,2,0.8305487099999027,1,1,DAN,2,1,2,7
D_PYL,2,9,2,0.6677322850000564,1,0,DAN,2,1,2,7
D_PYL,2,10,2,0.8338836499999616,1,1,DAN,2,1,2,7
D_PYL,2,11,2,0.7696499629998925,1,0,DAN,2,1,2,7
D_PYL,2,12,2,1.3541949699999805,1,0,DAN,2,1,2,7
D_PYL,2,13,2,0.8808810989999074,0,1,DAN,2,1,2,7
D_PYL,2,14,2,0.7977444670000295,1,0,DAN,2,1,2,7
D_PYL,2,15,2,0.7607128570000441,0,1,DAN,2,1,2,7
D_PYL,2,16,2,0.7536029359998793,1,0,DAN,2,1,2,7
D_PYL,2,17,2,0.5842551759999424,0,1,DAN,2,1,2,7
D_PYL,2,18,2,0.6904144229999929,1,0,DAN,2,1,2,7
D_PYL,2,1,3,,0,0,DAN,2,1,2,7
D_PYL,2,2,3,0.9020276460000787,1,0,DAN,2,1,2,7
D_PYL,2,3,3,0.7729977479998524,1,1,DAN,2,1,2,7
D_PYL,2,4,3,0.9038203929999327,1,0,DAN,2,1,2,7
D_PYL,2,5,3,0.9248482300001797,1,0,DAN,2,1,2,7
D_PYL,2,6,3,,0,0,DAN,2,1,2,7
D_PYL,2,7,3,,0,0,DAN,2,1,2,7
D_PYL,2,8,3,0.5819652300001508,1,1,DAN,2,1,2,7
D_PYL,2,9,3,0.7714642649998495,1,0,DAN,2,1,2,7
D_PYL,2,10,3,1.2579712619999555,0,1,DAN,2,1,2,7
D_PYL,2,11,3,0.8144142829999055,1,0,DAN,2,1,2,7
D_PYL,2,12,3,1.045485202000009,1,0,DAN,2,1,2,7
D_PYL,2,13,3,0.6760519029999159,0,1,DAN,2,1,2,7
D_PYL,2,14,3,0.8894890679998753,1,0,DAN,2,1,2,7
D_PYL,2,15,3,0.7409792470000411,1,1,DAN,2,1,2,7
D_PYL,2,16,3,0.781001827999944,1,0,DAN,2,1,2,7
D_PYL,2,17,3,0.48223395399986657,0,1,DAN,2,1,2,7
D_PYL,2,18,3,0.6372270580000077,0,0,DAN,2,1,2,7
D_PYL,0,1,1,,0,0,FPCNB,1,2,1,0
D_PYL,0,2,1,,0,0,FPCNB,1,2,1,0
D_PYL,0,3,1,,0,0,FPCNB,1,2,1,0
D_PYL,0,4,1,1.128581635000046,1,0,FPCNB,1,2,1,0
D_PYL,0,5,1,,0,1,FPCNB,1,2,1,0
D_PYL,0,6,1,0.5552262539999901,0,0,FPCNB,1,2,1,0
D_PYL,0,7,1,,0,1,FPCNB,1,2,1,0
D_PYL,0,8,1,0.6817148400000406,1,0,FPCNB,1,2,1,0
D_PYL,0,9,1,1.1681301790004,0,0,FPCNB,1,2,1,0
D_PYL,0,10,1,,0,0,FPCNB,1,2,1,0
D_PYL,0,11,1,0.8914399159998538,0,1,FPCNB,1,2,1,0
D_PYL,0,12,1,,0,0,FPCNB,1,2,1,0
D_PYL,0,13,1,0.5197024899998723,1,1,FPCNB,1,2,1,0
D_PYL,0,14,1,0.8505245549999927,1,0,FPCNB,1,2,1,0
D_PYL,0,15,1,1.2153683359997558,1,0,FPCNB,1,2,1,0
D_PYL,0,16,1,0.7165168960000301,1,1,FPCNB,1,2,1,0
D_PYL,0,17,1,1.2066014779998113,0,0,FPCNB,1,2,1,0
D_PYL,0,18,1,0.5092013299999962,0,1,FPCNB,1,2,1,0
D_PYL,0,1,2,0.9205789900001946,1,0,FPCNB,1,2,1,0
D_PYL,0,2,2,0.6296037980000619,1,0,FPCNB,1,2,1,0
D_PYL,0,3,2,0.5973833359998935,1,0,FPCNB,1,2,1,0
D_PYL,0,4,2,0.5945008799999414,1,0,FPCNB,1,2,1,0
D_PYL,0,5,2,0.5934427450001749,1,1,FPCNB,1,2,1,0
D_PYL,0,6,2,0.4111120180000398,1,0,FPCNB,1,2,1,0
D_PYL,0,7,2,0.7255305349999617,1,1,FPCNB,1,2,1,0
D_PYL,0,8,2,0.3669928340000297,1,0,FPCNB,1,2,1,0
D_PYL,0,9,2,0.8005990700003167,1,0,FPCNB,1,2,1,0
D_PYL,0,10,2,0.4592916560000049,1,0,FPCNB,1,2,1,0
D_PYL,0,11,2,0.3502297299996826,0,1,FPCNB,1,2,1,0
D_PYL,0,12,2,0.40596007300018755,1,0,FPCNB,1,2,1,0
D_PYL,0,13,2,0.3756172799999149,1,1,FPCNB,1,2,1,0
D_PYL,0,14,2,0.43638355399980355,1,0,FPCNB,1,2,1,0
D_PYL,0,15,2,0.7609344620000229,1,0,FPCNB,1,2,1,0
D_PYL,0,16,2,0.6743232349999744,1,1,FPCNB,1,2,1,0
D_PYL,0,17,2,0.5349929150002026,1,0,FPCNB,1,2,1,0
D_PYL,0,18,2,0.49438449799981754,1,1,FPCNB,1,2,1,0
D_PYL,1,1,1,0.8596168240001134,1,0,FPCNB,1,2,1,0
D_PYL,1,2,1,1.065418138000041,1,0,FPCNB,1,2,1,0
D_PYL,1,3,1,0.5380922099998315,0,1,FPCNB,1,2,1,0
D_PYL,1,4,1,0.6828343299998778,1,0,FPCNB,1,2,1,0
D_PYL,1,5,1,0.6350432020003609,1,0,FPCNB,1,2,1,0
D_PYL,1,6,1,0.4423707599999034,0,1,FPCNB,1,2,1,0
D_PYL,1,7,1,0.4080514510001194,1,0,FPCNB,1,2,1,0
D_PYL,1,8,1,2.430421174000003,0,0,FPCNB,1,2,1,0
D_PYL,1,9,1,0.13710327399985545,0,0,FPCNB,1,2,1,0
D_PYL,1,10,1,0.35922079800002393,0,1,FPCNB,1,2,1,0
D_PYL,1,11,1,0.3402605129999756,1,0,FPCNB,1,2,1,0
D_PYL,1,12,1,0.20265596499984895,0,0,FPCNB,1,2,1,0
D_PYL,1,13,1,0.3109859230003167,0,1,FPCNB,1,2,1,0
D_PYL,1,14,1,0.48659979000012754,0,0,FPCNB,1,2,1,0
D_PYL,1,15,1,0.6809742039999946,1,0,FPCNB,1,2,1,0
D_PYL,1,16,1,0.5185610640000959,0,1,FPCNB,1,2,1,0
D_PYL,1,17,1,0.406261813999663,0,0,FPCNB,1,2,1,0
D_PYL,1,18,1,0.37502377600003456,0,1,FPCNB,1,2,1,0
D_PYL,1,1,2,,0,0,FPCNB,1,2,1,0
D_PYL,1,2,2,,0,0,FPCNB,1,2,1,0
D_PYL,1,3,2,1.5785652429999573,1,1,FPCNB,1,2,1,0
D_PYL,1,4,2,,0,0,FPCNB,1,2,1,0
D_PYL,1,5,2,0.7587891069997568,1,0,FPCNB,1,2,1,0
D_PYL,1,6,2,0.8171291980002025,0,1,FPCNB,1,2,1,0
D_PYL,1,7,2,0.7553247540004122,0,0,FPCNB,1,2,1,0
D_PYL,1,8,2,,0,0,FPCNB,1,2,1,0
D_PYL,1,9,2,0.7296934569999394,1,0,FPCNB,1,2,1,0
D_PYL,1,10,2,0.9399434160000055,0,1,FPCNB,1,2,1,0
D_PYL,1,11,2,1.9135619419998875,0,0,FPCNB,1,2,1,0
D_PYL,1,12,2,,0,0,FPCNB,1,2,1,0
D_PYL,1,13,2,0.47051712600023166,0,1,FPCNB,1,2,1,0
D_PYL,1,14,2,,0,0,FPCNB,1,2,1,0
D_PYL,1,15,2,,0,0,FPCNB,1,2,1,0
D_PYL,1,16,2,0.8871903529998235,1,1,FPCNB,1,2,1,0
D_PYL,1,17,2,,0,0,FPCNB,1,2,1,0
D_PYL,1,18,2,1.0885601680001855,1,1,FPCNB,1,2,1,0
D_PYL,1,1,3,,0,0,FPCNB,1,2,1,0
D_PYL,1,2,3,1.1107082559997252,1,0,FPCNB,1,2,1,0
D_PYL,1,3,3,1.1511699220000082,1,1,FPCNB,1,2,1,0
D_PYL,1,4,3,1.01843731200006,1,0,FPCNB,1,2,1,0
D_PYL,1,5,3,1.3229205849997925,1,0,FPCNB,1,2,1,0
D_PYL,1,6,3,0.5589480200001162,1,1,FPCNB,1,2,1,0
D_PYL,1,7,3,0.806956080999953,1,0,FPCNB,1,2,1,0
D_PYL,1,8,3,0.8775414970000384,1,0,FPCNB,1,2,1,0
D_PYL,1,9,3,0.818529387000126,1,0,FPCNB,1,2,1,0
D_PYL,1,10,3,0.4821602619999794,0,1,FPCNB,1,2,1,0
D_PYL,1,11,3,,0,0,FPCNB,1,2,1,0
D_PYL,1,12,3,,0,0,FPCNB,1,2,1,0
D_PYL,1,13,3,0.7110866519997217,1,1,FPCNB,1,2,1,0
D_PYL,1,14,3,0.6232233300002008,1,0,FPCNB,1,2,1,0
D_PYL,1,15,3,1.3576289379998343,1,0,FPCNB,1,2,1,0
D_PYL,1,16,3,0.83120821600005,1,1,FPCNB,1,2,1,0
D_PYL,1,17,3,,0,0,FPCNB,1,2,1,0
D_PYL,1,18,3,0.8286796839997805,1,1,FPCNB,1,2,1,0
D_PYL,2,1,1,,0,1,FPCNB,1,2,1,0
D_PYL,2,2,1,,0,0,FPCNB,1,2,1,0
D_PYL,2,3,1,1.0692560980000962,1,0,FPCNB,1,2,1,0
D_PYL,2,4,1,1.1170406999999614,1,1,FPCNB,1,2,1,0
D_PYL,2,5,1,1.2344051949999084,1,0,FPCNB,1,2,1,0
D_PYL,2,6,1,,0,0,FPCNB,1,2,1,0
D_PYL,2,7,1,1.1653372200003105,0,1,FPCNB,1,2,1,0
D_PYL,2,8,1,,0,0,FPCNB,1,2,1,0
D_PYL,2,9,1,1.079013772000053,1,0,FPCNB,1,2,1,0
D_PYL,2,10,1,0.8734182779999173,1,0,FPCNB,1,2,1,0
D_PYL,2,11,1,1.3790358620003644,1,1,FPCNB,1,2,1,0
D_PYL,2,12,1,,0,0,FPCNB,1,2,1,0
D_PYL,2,13,1,,0,0,FPCNB,1,2,1,0
D_PYL,2,14,1,1.2355769630003124,1,1,FPCNB,1,2,1,0
D_PYL,2,15,1,,0,0,FPCNB,1,2,1,0
D_PYL,2,16,1,,0,1,FPCNB,1,2,1,0
D_PYL,2,17,1,0.856900690999737,1,1,FPCNB,1,2,1,0
D_PYL,2,18,1,1.5126721530000395,1,0,FPCNB,1,2,1,0
D_PYL,2,1,2,,0,0,FPCNB,1,2,1,0
D_PYL,2,2,2,,0,1,FPCNB,1,2,1,0
D_PYL,2,3,2,1.2819798880000235,1,0,FPCNB,1,2,1,0
D_PYL,2,4,2,1.0027995820000797,1,0,FPCNB,1,2,1,0
D_PYL,2,5,2,0.9759504929998002,1,1,FPCNB,1,2,1,0
D_PYL,2,6,2,1.2615975230000913,1,0,FPCNB,1,2,1,0
D_PYL,2,7,2,1.1394087839998974,1,0,FPCNB,1,2,1,0
D_PYL,2,8,2,,0,0,FPCNB,1,2,1,0
D_PYL,2,9,2,0.8925768439999047,1,1,FPCNB,1,2,1,0
D_PYL,2,10,2,1.2990657340001235,1,0,FPCNB,1,2,1,0
D_PYL,2,11,2,,0,0,FPCNB,1,2,1,0
D_PYL,2,12,2,1.2765626400000656,0,1,FPCNB,1,2,1,0
D_PYL,2,13,2,1.4354081830001633,1,0,FPCNB,1,2,1,0
D_PYL,2,14,2,1.5233540340000218,1,1,FPCNB,1,2,1,0
D_PYL,2,15,2,1.2162105699999302,0,1,FPCNB,1,2,1,0
D_PYL,2,16,2,1.7966028030000416,1,0,FPCNB,1,2,1,0
D_PYL,2,17,2,1.8381683440002234,1,0,FPCNB,1,2,1,0
D_PYL,2,18,2,0.9011944920002861,0,1,FPCNB,1,2,1,0
D_PYL,2,1,3,1.406499217000146,1,0,FPCNB,1,2,1,0
D_PYL,2,2,3,0.9347929699997621,1,0,FPCNB,1,2,1,0
D_PYL,2,3,3,1.220998819000215,1,1,FPCNB,1,2,1,0
D_PYL,2,4,3,1.3254914350000035,1,0,FPCNB,1,2,1,0
D_PYL,2,5,3,1.2212712259997716,1,0,FPCNB,1,2,1,0
D_PYL,2,6,3,0.8157288410002366,0,0,FPCNB,1,2,1,0
D_PYL,2,7,3,0.8241750590000265,0,1,FPCNB,1,2,1,0
D_PYL,2,8,3,0.7883583660000113,1,0,FPCNB,1,2,1,0
D_PYL,2,9,3,0.8396513900001992,1,0,FPCNB,1,2,1,0
D_PYL,2,10,3,0.6485731649995614,0,1,FPCNB,1,2,1,0
D_PYL,2,11,3,0.5201209229999222,1,0,FPCNB,1,2,1,0
D_PYL,2,12,3,0.4979232620003131,0,1,FPCNB,1,2,1,0
D_PYL,2,13,3,0.5357561140003781,0,1,FPCNB,1,2,1,0
D_PYL,2,14,3,0.48655330800011143,1,0,FPCNB,1,2,1,0
D_PYL,2,15,3,0.6215832620000583,1,0,FPCNB,1,2,1,0
D_PYL,2,16,3,0.7270529779998469,1,1,FPCNB,1,2,1,0
D_PYL,2,17,3,0.47283024999978807,1,0,FPCNB,1,2,1,0
D_PYL,2,18,3,0.6086030039996331,1,0,FPCNB,1,2,1,0
D_PYL,0,1,1,0.858217824999997,1,0,vertex,3,3,3,14
D_PYL,0,2,1,0.4125709420000021,1,0,vertex,3,3,3,14
D_PYL,0,3,1,0.4074013429999468,1,1,vertex,3,3,3,14
D_PYL,0,4,1,0.4020003979999274,1,0,vertex,3,3,3,14
D_PYL,0,5,1,0.4257873239999981,1,1,vertex,3,3,3,14
D_PYL,0,6,1,0.3394379399999252,1,0,vertex,3,3,3,14
D_PYL,0,7,1,0.4903207739999971,1,1,vertex,3,3,3,14
D_PYL,0,8,1,0.40252432600004795,1,0,vertex,3,3,3,14
D_PYL,0,9,1,0.4744277099999863,1,0,vertex,3,3,3,14
D_PYL,0,10,1,0.47235210600001665,1,0,vertex,3,3,3,14
D_PYL,0,11,1,0.6550806420000299,1,1,vertex,3,3,3,14
D_PYL,0,12,1,0.3672583779999741,1,0,vertex,3,3,3,14
D_PYL,0,13,1,0.6714548200000081,1,0,vertex,3,3,3,14
D_PYL,0,14,1,0.45601384999997663,1,0,vertex,3,3,3,14
D_PYL,0,15,1,0.409571853999978,1,0,vertex,3,3,3,14
D_PYL,0,16,1,0.3377635619999637,1,1,vertex,3,3,3,14
D_PYL,0,17,1,0.5046383940000396,1,0,vertex,3,3,3,14
D_PYL,0,18,1,0.45362927599990144,1,1,vertex,3,3,3,14
D_PYL,1,1,1,,0,0,vertex,3,3,3,14
D_PYL,1,2,1,,0,0,vertex,3,3,3,14
D_PYL,1,3,1,0.8702095830000189,1,1,vertex,3,3,3,14
D_PYL,1,4,1,1.1909747690000358,1,0,vertex,3,3,3,14
D_PYL,1,5,1,0.9452554629999668,1,0,vertex,3,3,3,14
D_PYL,1,6,1,0.6489195519999384,1,1,vertex,3,3,3,14
D_PYL,1,7,1,1.0054724399999486,1,0,vertex,3,3,3,14
D_PYL,1,8,1,0.6751283650000914,1,1,vertex,3,3,3,14
D_PYL,1,9,1,0.9078115999999454,1,0,vertex,3,3,3,14
D_PYL,1,10,1,0.7274746419999474,1,1,vertex,3,3,3,14
D_PYL,1,11,1,1.1311492629999975,1,0,vertex,3,3,3,14
D_PYL,1,12,1,0.5861456549999957,1,1,vertex,3,3,3,14
D_PYL,1,13,1,,0,0,vertex,3,3,3,14
D_PYL,1,14,1,0.6015064010000515,1,0,vertex,3,3,3,14
D_PYL,1,15,1,0.6993017419999887,1,0,vertex,3,3,3,14
D_PYL,1,16,1,0.8569539979999945,1,0,vertex,3,3,3,14
D_PYL,1,17,1,0.5403457450000815,1,0,vertex,3,3,3,14
D_PYL,1,18,1,0.5402277890000278,0,1,vertex,3,3,3,14
D_PYL,2,1,1,,0,0,vertex,3,3,3,14
D_PYL,2,2,1,,0,1,vertex,3,3,3,14
D_PYL,2,3,1,0.7409146930000361,1,0,vertex,3,3,3,14
D_PYL,2,4,1,0.8915066959999649,1,1,vertex,3,3,3,14
D_PYL,2,5,1,0.7876290589999826,1,0,vertex,3,3,3,14
D_PYL,2,6,1,0.5660903880000205,1,0,vertex,3,3,3,14
D_PYL,2,7,1,0.7374279540000543,1,0,vertex,3,3,3,14
D_PYL,2,8,1,0.8400811000000203,1,1,vertex,3,3,3,14
D_PYL,2,9,1,0.6943291740000177,1,0,vertex,3,3,3,14
D_PYL,2,10,1,0.7225469779999685,1,0,vertex,3,3,3,14
D_PYL,2,11,1,0.8561609150000322,0,1,vertex,3,3,3,14
D_PYL,2,12,1,0.3978272399999696,0,0,vertex,3,3,3,14
D_PYL,2,13,1,0.395873002999906,1,0,vertex,3,3,3,14
D_PYL,2,14,1,0.40615519599998606,0,1,vertex,3,3,3,14
D_PYL,2,15,1,0.7422238279999647,1,0,vertex,3,3,3,14
D_PYL,2,16,1,0.44130223000001934,0,1,vertex,3,3,3,14
D_PYL,2,17,1,0.538188128999991,0,0,vertex,3,3,3,14
D_PYL,2,18,1,0.30796889999999166,0,1,vertex,3,3,3,14
D_PYL,2,1,2,0.8453064940000559,1,0,vertex,3,3,3,14
D_PYL,2,2,2,0.7681632480000644,0,1,vertex,3,3,3,14
D_PYL,2,3,2,0.6520990919999576,1,0,vertex,3,3,3,14
D_PYL,2,4,2,1.2394351370001004,1,0,vertex,3,3,3,14
D_PYL,2,5,2,,0,0,vertex,3,3,3,14
D_PYL,2,6,2,0.3727551399999811,0,1,vertex,3,3,3,14
D_PYL,2,7,2,0.7649179580000691,1,0,vertex,3,3,3,14
D_PYL,2,8,2,0.5934196870000505,1,0,vertex,3,3,3,14
D_PYL,2,9,2,1.01054934900003,0,1,vertex,3,3,3,14
D_PYL,2,10,2,0.6862164149999899,1,0,vertex,3,3,3,14
D_PYL,2,11,2,0.5455888999999843,1,0,vertex,3,3,3,14
D_PYL,2,12,2,0.4791733030000387,0,1,vertex,3,3,3,14
D_PYL,2,13,2,0.5737906479999992,1,0,vertex,3,3,3,14
D_PYL,2,14,2,0.6485638380000864,0,1,vertex,3,3,3,14
D_PYL,2,15,2,0.8328527800000529,0,0,vertex,3,3,3,14
D_PYL,2,16,2,0.5678685929999574,1,1,vertex,3,3,3,14
D_PYL,2,17,2,0.4935461590000614,1,0,vertex,3,3,3,14
D_PYL,2,18,2,0.3725485850000041,0,1,vertex,3,3,3,14
D_PYL,2,1,3,0.7873392640000247,1,0,vertex,3,3,3,14
D_PYL,2,2,3,1.407391506999943,1,0,vertex,3,3,3,14
D_PYL,2,3,3,0.9721768040000143,1,0,vertex,3,3,3,14
D_PYL,2,4,3,1.0217347369999743,1,1,vertex,3,3,3,14
D_PYL,2,5,3,0.7380789210000103,1,0,vertex,3,3,3,14
D_PYL,2,6,3,1.481572544999949,1,0,vertex,3,3,3,14
D_PYL,2,7,3,0.7793937520000327,1,1,vertex,3,3,3,14
D_PYL,2,8,3,0.5914025900000297,1,0,vertex,3,3,3,14
D_PYL,2,9,3,0.694970837000028,1,0,vertex,3,3,3,14
D_PYL,2,10,3,0.43776836200004254,0,1,vertex,3,3,3,14
D_PYL,2,11,3,0.6220863839999993,1,0,vertex,3,3,3,14
D_PYL,2,12,3,0.49363376399992376,0,1,vertex,3,3,3,14
D_PYL,2,13,3,0.5230489950000674,1,0,vertex,3,3,3,14
D_PYL,2,14,3,0.5073427749999837,0,1,vertex,3,3,3,14
D_PYL,2,15,3,0.4189334870000039,1,0,vertex,3,3,3,14
D_PYL,2,16,3,0.7294584019999775,0,1,vertex,3,3,3,14
D_PYL,2,17,3,0.3719604980000213,0,0,vertex,3,3,3,14
D_PYL,2,18,3,0.7365624809999645,0,0,vertex,3,3,3,14
D_RTA,0,1,1,,0,0,DAN,prac,2,1,0
D_RTA,0,2,1,0.672220699,1,0,DAN,prac,2,1,0
D_RTA,0,3,1,0.638681248,1,0,DAN,prac,2,1,0
D_RTA,0,4,1,0.514573925,1,0,DAN,prac,2,1,0
D_RTA,0,5,1,0.511001843,1,1,DAN,prac,2,1,0
D_RTA,0,6,1,0.405361518,1,0,DAN,prac,2,1,0
D_RTA,0,7,1,0.57728884,1,1,DAN,prac,2,1,0
D_RTA,0,8,1,0.730310368,1,0,DAN,prac,2,1,0
D_RTA,0,9,1,0.311831512,1,0,DAN,prac,2,1,0
D_RTA,0,10,1,0.305470332,1,0,DAN,prac,2,1,0
D_RTA,0,11,1,0.530097063,1,1,DAN,prac,2,1,0
D_RTA,0,12,1,0.396845749,1,0,DAN,prac,2,1,0
D_RTA,0,13,1,0.356509927,1,1,DAN,prac,2,1,0
D_RTA,0,14,1,0.384973332,1,0,DAN,prac,2,1,0
D_RTA,0,15,1,0.31620034,1,0,DAN,prac,2,1,0
D_RTA,0,16,1,0.373020962,1,1,DAN,prac,2,1,0
D_RTA,0,17,1,0.41485154,1,0,DAN,prac,2,1,0
D_RTA,0,18,1,0.507241112,1,1,DAN,prac,2,1,0
D_RTA,1,1,1,0.633730765,1,0,DAN,prac,2,1,0
D_RTA,1,2,1,0.421137226,1,0,DAN,prac,2,1,0
D_RTA,1,3,1,0.35931521,1,1,DAN,prac,2,1,0
D_RTA,1,4,1,0.515648684,1,0,DAN,prac,2,1,0
D_RTA,1,5,1,0.458276106,1,0,DAN,prac,2,1,0
D_RTA,1,6,1,0.520012103,1,1,DAN,prac,2,1,0
D_RTA,1,7,1,0.448949833,1,0,DAN,prac,2,1,0
D_RTA,1,8,1,0.291196518,1,0,DAN,prac,2,1,0
D_RTA,1,9,1,0.404168254,1,0,DAN,prac,2,1,0
D_RTA,1,10,1,0.65597505,0,1,DAN,prac,2,1,0
D_RTA,1,11,1,0.455727594,1,0,DAN,prac,2,1,0
D_RTA,1,12,1,0.471529362,1,0,DAN,prac,2,1,0
D_RTA,1,13,1,0.438871368,0,1,DAN,prac,2,1,0
D_RTA,1,14,1,0.472031428,1,0,DAN,prac,2,1,0
D_RTA,1,15,1,0.466484512,1,0,DAN,prac,2,1,0
D_RTA,1,16,1,0.82211346,0,1,DAN,prac,2,1,0
D_RTA,1,17,1,0.580242494,1,0,DAN,prac,2,1,0
D_RTA,1,18,1,0.62383581,1,1,DAN,prac,2,1,0
D_RTA,2,1,1,0.822522088,0,1,DAN,prac,2,1,0
D_RTA,2,2,1,0.763039178,1,0,DAN,prac,2,1,0
D_RTA,2,3,1,0.753165797,1,0,DAN,prac,2,1,0
D_RTA,2,4,1,0.87618219,1,1,DAN,prac,2,1,0
D_RTA,2,5,1,0.481382865,1,0,DAN,prac,2,1,0
D_RTA,2,6,1,0.576991383,1,0,DAN,prac,2,1,0
D_RTA,2,7,1,0.593008224,1,1,DAN,prac,2,1,0
D_RTA,2,8,1,0.72591912,1,0,DAN,prac,2,1,0
D_RTA,2,9,1,0.738957098,1,0,DAN,prac,2,1,0
D_RTA,2,10,1,0.771221792,1,0,DAN,prac,2,1,0
D_RTA,2,11,1,0.735579825,1,1,DAN,prac,2,1,0
D_RTA,2,12,1,0.670809953,1,0,DAN,prac,2,1,0
D_RTA,2,13,1,1.393523952,0,0,DAN,prac,2,1,0
D_RTA,2,14,1,1.199160595,1,1,DAN,prac,2,1,0
D_RTA,2,15,1,0.831984337,1,0,DAN,prac,2,1,0
D_RTA,2,16,1,0.950417304,1,1,DAN,prac,2,1,0
D_RTA,2,17,1,0.99133066,1,1,DAN,prac,2,1,0
D_RTA,2,18,1,1.34478292,1,0,DAN,prac,2,1,0
D_RTA,0,1,1,,0,0,FPCNB,prac,1,3,21
D_RTA,0,2,1,0.7875227179999911,1,0,FPCNB,prac,1,3,21
D_RTA,0,3,1,0.4057808520000208,1,1,FPCNB,prac,1,3,21
D_RTA,0,4,1,0.5367627079999693,1,0,FPCNB,prac,1,3,21
D_RTA,0,5,1,0.5355740290000313,1,1,FPCNB,prac,1,3,21
D_RTA,0,6,1,0.4148495860000594,1,0,FPCNB,prac,1,3,21
D_RTA,0,7,1,0.33849539899995307,1,0,FPCNB,prac,1,3,21
D_RTA,0,8,1,0.34586198499994225,1,1,FPCNB,prac,1,3,21
D_RTA,0,9,1,0.3321436769999764,1,0,FPCNB,prac,1,3,21
D_RTA,0,10,1,0.4050964960000556,1,1,FPCNB,prac,1,3,21
D_RTA,0,11,1,0.4444786980000117,1,0,FPCNB,prac,1,3,21
D_RTA,0,12,1,0.34700225299991416,1,0,FPCNB,prac,1,3,21
D_RTA,0,13,1,0.5496374329999298,1,1,FPCNB,prac,1,3,21
D_RTA,0,14,1,0.43788025599997127,1,0,FPCNB,prac,1,3,21
D_RTA,0,15,1,0.34961289399996076,1,0,FPCNB,prac,1,3,21
D_RTA,0,16,1,0.3210812680000572,1,0,FPCNB,prac,1,3,21
D_RTA,0,17,1,0.30710781999994197,1,0,FPCNB,prac,1,3,21
D_RTA,0,18,1,0.47046142900001087,1,1,FPCNB,prac,1,3,21
D_RTA,1,1,1,0.5295193980000477,1,0,FPCNB,prac,1,3,21
D_RTA,1,2,1,0.5979686870000478,1,0,FPCNB,prac,1,3,21
D_RTA,1,3,1,0.5844256430000314,1,0,FPCNB,prac,1,3,21
D_RTA,1,4,1,0.9529876709999598,1,1,FPCNB,prac,1,3,21
D_RTA,1,5,1,0.6309258,1,0,FPCNB,prac,1,3,21
D_RTA,1,6,1,0.5282615979999719,1,0,FPCNB,prac,1,3,21
D_RTA,1,7,1,0.5205958619999365,1,0,FPCNB,prac,1,3,21
D_RTA,1,8,1,0.686315430000036,1,1,FPCNB,prac,1,3,21
D_RTA,1,9,1,0.48107982999999876,1,0,FPCNB,prac,1,3,21
D_RTA,1,10,1,0.44123884999999063,1,1,FPCNB,prac,1,3,21
D_RTA,1,11,1,0.42958732700003566,1,0,FPCNB,prac,1,3,21
D_RTA,1,12,1,0.5330951400000004,1,0,FPCNB,prac,1,3,21
D_RTA,1,13,1,0.40650426999991396,1,1,FPCNB,prac,1,3,21
D_RTA,1,14,1,0.4261382599999024,1,0,FPCNB,prac,1,3,21
D_RTA,1,15,1,0.6325710240000717,1,1,FPCNB,prac,1,3,21
D_RTA,1,16,1,0.4104710920000798,1,0,FPCNB,prac,1,3,21
D_RTA,1,17,1,0.4842291600000408,1,1,FPCNB,prac,1,3,21
D_RTA,1,18,1,0.48769968200008407,1,0,FPCNB,prac,1,3,21
D_RTA,2,1,1,0.6265017299999727,1,0,FPCNB,prac,1,3,21
D_RTA,2,2,1,0.5139327680000179,1,0,FPCNB,prac,1,3,21
D_RTA,2,3,1,0.5353853230000141,1,1,FPCNB,prac,1,3,21
D_RTA,2,4,1,0.7394460950000621,1,0,FPCNB,prac,1,3,21
D_RTA,2,5,1,0.7785923619999267,1,0,FPCNB,prac,1,3,21
D_RTA,2,6,1,0.5020832789999758,0,0,FPCNB,prac,1,3,21
D_RTA,2,7,1,0.36165056300001197,1,0,FPCNB,prac,1,3,21
D_RTA,2,8,1,0.6486161120000133,1,1,FPCNB,prac,1,3,21
D_RTA,2,9,1,0.43433139299997947,1,0,FPCNB,prac,1,3,21
D_RTA,2,10,1,0.9418450099999518,1,1,FPCNB,prac,1,3,21
D_RTA,2,11,1,0.7796649160000015,1,0,FPCNB,prac,1,3,21
D_RTA,2,12,1,0.5871379840000372,1,0,FPCNB,prac,1,3,21
D_RTA,2,13,1,0.6899678470000481,1,1,FPCNB,prac,1,3,21
D_RTA,2,14,1,0.7573024859999578,1,0,FPCNB,prac,1,3,21
D_RTA,2,15,1,0.9218084800000952,1,1,FPCNB,prac,1,3,21
D_RTA,2,16,1,0.6776151330000175,1,0,FPCNB,prac,1,3,21
D_RTA,2,17,1,1.1779534649999732,1,1,FPCNB,prac,1,3,21
D_RTA,2,18,1,1.9399058669999931,0,0,FPCNB,prac,1,3,21
D_RTA,0,1,1,0.8476493739999569,1,0,vertex,prac,3,2,14
D_RTA,0,2,1,0.5004765400000224,1,0,vertex,prac,3,2,14
D_RTA,0,3,1,0.5868763959999796,1,1,vertex,prac,3,2,14
D_RTA,0,4,1,0.3832944260000204,1,0,vertex,prac,3,2,14
D_RTA,0,5,1,0.5544750699999668,1,1,vertex,prac,3,2,14
D_RTA,0,6,1,0.3549945849999858,1,0,vertex,prac,3,2,14
D_RTA,0,7,1,0.4260683859999972,1,1,vertex,prac,3,2,14
D_RTA,0,8,1,0.45446278800000073,1,0,vertex,prac,3,2,14
D_RTA,0,9,1,0.39003255199997966,1,0,vertex,prac,3,2,14
D_RTA,0,10,1,0.3304581249999501,1,0,vertex,prac,3,2,14
D_RTA,0,11,1,0.34860984099998404,1,1,vertex,prac,3,2,14
D_RTA,0,12,1,0.3044320889999881,1,0,vertex,prac,3,2,14
D_RTA,0,13,1,0.2847360600000002,1,0,vertex,prac,3,2,14
D_RTA,0,14,1,0.3451379769999221,1,0,vertex,prac,3,2,14
D_RTA,0,15,1,0.405997358000036,1,0,vertex,prac,3,2,14
D_RTA,0,16,1,0.5624464879999778,1,1,vertex,prac,3,2,14
D_RTA,0,17,1,0.36488919199996417,1,0,vertex,prac,3,2,14
D_RTA,0,18,1,0.45797020999998495,1,1,vertex,prac,3,2,14
D_RTA,1,1,1,0.5169425970000248,1,0,vertex,prac,3,2,14
D_RTA,1,2,1,0.48032262600008835,1,0,vertex,prac,3,2,14
D_RTA,1,3,1,0.3176293020000003,0,1,vertex,prac,3,2,14
D_RTA,1,4,1,0.42869362999999794,1,0,vertex,prac,3,2,14
D_RTA,1,5,1,0.3973592770000778,1,0,vertex,prac,3,2,14
D_RTA,1,6,1,0.35862920999989,1,1,vertex,prac,3,2,14
D_RTA,1,7,1,0.3587853429999086,1,0,vertex,prac,3,2,14
D_RTA,1,8,1,0.33334700800014616,1,1,vertex,prac,3,2,14
D_RTA,1,9,1,0.34547175600005176,1,0,vertex,prac,3,2,14
D_RTA,1,10,1,0.54725326699986,1,1,vertex,prac,3,2,14
D_RTA,1,11,1,0.4129853980000462,1,0,vertex,prac,3,2,14
D_RTA,1,12,1,0.4180896540001413,1,1,vertex,prac,3,2,14
D_RTA,1,13,1,0.3832474580001417,1,0,vertex,prac,3,2,14
D_RTA,1,14,1,0.5774445199999718,1,0,vertex,prac,3,2,14
D_RTA,1,15,1,0.6184815569999955,1,0,vertex,prac,3,2,14
D_RTA,1,16,1,0.41072665000001507,1,0,vertex,prac,3,2,14
D_RTA,1,17,1,0.37830717900010313,1,0,vertex,prac,3,2,14
D_RTA,1,18,1,0.35901971300017976,1,1,vertex,prac,3,2,14
D_RTA,2,1,1,0.7831176419999792,1,0,vertex,prac,3,2,14
D_RTA,2,2,1,0.8796886069999346,0,1,vertex,prac,3,2,14
D_RTA,2,3,1,0.7384583739999471,1,0,vertex,prac,3,2,14
D_RTA,2,4,1,0.44398132600008466,1,1,vertex,prac,3,2,14
D_RTA,2,5,1,0.4398676009998326,1,0,vertex,prac,3,2,14
D_RTA,2,6,1,0.7490586179999354,0,0,vertex,prac,3,2,14
D_RTA,2,7,1,0.39263322500005415,1,0,vertex,prac,3,2,14
D_RTA,2,8,1,0.7007162239999616,1,1,vertex,prac,3,2,14
D_RTA,2,9,1,0.32044489700001577,1,0,vertex,prac,3,2,14
D_RTA,2,10,1,0.49895160699998087,1,0,vertex,prac,3,2,14
D_RTA,2,11,1,0.5009045700001025,1,1,vertex,prac,3,2,14
D_RTA,2,12,1,0.3806237010001041,1,0,vertex,prac,3,2,14
D_RTA,2,13,1,0.5530170389999967,1,0,vertex,prac,3,2,14
D_RTA,2,14,1,0.7296164170002157,1,1,vertex,prac,3,2,14
D_RTA,2,15,1,0.3576992439998321,1,0,vertex,prac,3,2,14
D_RTA,2,16,1,0.5908780099998694,0,1,vertex,prac,3,2,14
D_RTA,2,17,1,0.9154146299999866,1,0,vertex,prac,3,2,14
D_RTA,2,18,1,0.7456232140000338,1,1,vertex,prac,3,2,14
D_TPE,0,1,1,0.6878903530000571,1,0,DAN,prac,1,1,0
D_TPE,0,2,1,0.40926279999985127,1,0,DAN,prac,1,1,0
D_TPE,0,3,1,0.39131578500018804,1,1,DAN,prac,1,1,0
D_TPE,0,4,1,0.3617810630000804,1,0,DAN,prac,1,1,0
D_TPE,0,5,1,0.4680327030000626,1,1,DAN,prac,1,1,0
D_TPE,0,6,1,0.45745886400004565,1,0,DAN,prac,1,1,0
D_TPE,0,7,1,0.42194277999988117,1,0,DAN,prac,1,1,0
D_TPE,0,8,1,0.5483292929998242,1,1,DAN,prac,1,1,0
D_TPE,0,9,1,0.8969801320001807,1,0,DAN,prac,1,1,0
D_TPE,0,10,1,0.6241173149999213,1,1,DAN,prac,1,1,0
D_TPE,0,11,1,0.4972028249999312,1,0,DAN,prac,1,1,0
D_TPE,0,12,1,0.42178083299995706,1,0,DAN,prac,1,1,0
D_TPE,0,13,1,0.4857936470000368,1,1,DAN,prac,1,1,0
D_TPE,0,14,1,0.5510646559998804,1,0,DAN,prac,1,1,0
D_TPE,0,15,1,0.4558984169998439,1,0,DAN,prac,1,1,0
D_TPE,0,16,1,0.373060316999954,1,0,DAN,prac,1,1,0
D_TPE,0,17,1,0.497666332000108,1,0,DAN,prac,1,1,0
D_TPE,0,18,1,0.5816201000000092,1,1,DAN,prac,1,1,0
D_TPE,1,1,1,0.8365555149998727,1,0,DAN,prac,1,1,0
D_TPE,1,2,1,0.4304768099998455,1,0,DAN,prac,1,1,0
D_TPE,1,3,1,0.518440690000034,1,0,DAN,prac,1,1,0
D_TPE,1,4,1,0.9747081519999483,1,1,DAN,prac,1,1,0
D_TPE,1,5,1,0.8201859200000854,1,0,DAN,prac,1,1,0
D_TPE,1,6,1,0.6587974639999175,1,0,DAN,prac,1,1,0
D_TPE,1,7,1,0.5563041960001556,1,0,DAN,prac,1,1,0
D_TPE,1,8,1,0.44438067999999475,1,1,DAN,prac,1,1,0
D_TPE,1,9,1,0.793154179999874,1,0,DAN,prac,1,1,0
D_TPE,1,10,1,0.6376039149999997,1,1,DAN,prac,1,1,0
D_TPE,1,11,1,0.5893071820000841,1,0,DAN,prac,1,1,0
D_TPE,1,12,1,0.5755625110000437,1,0,DAN,prac,1,1,0
D_TPE,1,13,1,0.4133516069998677,1,1,DAN,prac,1,1,0
D_TPE,1,14,1,0.7394349349999629,1,0,DAN,prac,1,1,0
D_TPE,1,15,1,0.47053328699985286,1,1,DAN,prac,1,1,0
D_TPE,1,16,1,0.688340966999931,1,0,DAN,prac,1,1,0
D_TPE,1,17,1,0.36200951499995426,1,1,DAN,prac,1,1,0
D_TPE,1,18,1,0.5835486720000063,1,0,DAN,prac,1,1,0
D_TPE,2,1,1,0.9191841319998275,1,0,DAN,prac,1,1,0
D_TPE,2,2,1,0.5003178580000167,1,0,DAN,prac,1,1,0
D_TPE,2,3,1,0.3687405690000105,1,1,DAN,prac,1,1,0
D_TPE,2,4,1,0.6566465529999732,1,0,DAN,prac,1,1,0
D_TPE,2,5,1,0.6823984049999581,0,0,DAN,prac,1,1,0
D_TPE,2,6,1,0.6157910499998707,1,0,DAN,prac,1,1,0
D_TPE,2,7,1,0.6259516799998437,1,0,DAN,prac,1,1,0
D_TPE,2,8,1,0.341662260000021,1,1,DAN,prac,1,1,0
D_TPE,2,9,1,0.7192990620001183,1,0,DAN,prac,1,1,0
D_TPE,2,10,1,0.37736667200010743,1,1,DAN,prac,1,1,0
D_TPE,2,11,1,0.48364811000010377,1,0,DAN,prac,1,1,0
D_TPE,2,12,1,0.8594502920000195,1,0,DAN,prac,1,1,0
D_TPE,2,13,1,0.350539260000005,1,1,DAN,prac,1,1,0
D_TPE,2,14,1,0.5056940740000755,1,0,DAN,prac,1,1,0
D_TPE,2,15,1,0.45807009899999684,1,1,DAN,prac,1,1,0
D_TPE,2,16,1,0.9698101349999888,1,0,DAN,prac,1,1,0
D_TPE,2,17,1,0.7464957770000638,1,1,DAN,prac,1,1,0
D_TPE,2,18,1,0.754849035999996,1,0,DAN,prac,1,1,0
D_TPE,0,1,1,0.622079312,1,0,FPCNB,prac,3,3,14
D_TPE,0,2,1,0.482714922,1,0,FPCNB,prac,3,3,14
D_TPE,0,3,1,0.488908688,1,1,FPCNB,prac,3,3,14
D_TPE,0,4,1,0.66503511,1,0,FPCNB,prac,3,3,14
D_TPE,0,5,1,0.458096176,1,1,FPCNB,prac,3,3,14
D_TPE,0,6,1,0.37697763,1,0,FPCNB,prac,3,3,14
D_TPE,0,7,1,0.370473851,1,1,FPCNB,prac,3,3,14
D_TPE,0,8,1,0.353292309,1,0,FPCNB,prac,3,3,14
D_TPE,0,9,1,0.539081203,1,0,FPCNB,prac,3,3,14
D_TPE,0,10,1,0.431417432,1,0,FPCNB,prac,3,3,14
D_TPE,0,11,1,0.54689161,1,1,FPCNB,prac,3,3,14
D_TPE,0,12,1,0.498738207,1,0,FPCNB,prac,3,3,14
D_TPE,0,13,1,0.381201618,1,0,FPCNB,prac,3,3,14
D_TPE,0,14,1,0.406722366,1,0,FPCNB,prac,3,3,14
D_TPE,0,15,1,0.37922181,1,0,FPCNB,prac,3,3,14
D_TPE,0,16,1,0.423954445,1,1,FPCNB,prac,3,3,14
D_TPE,0,17,1,0.399928509,1,0,FPCNB,prac,3,3,14
D_TPE,0,18,1,0.497751244,1,1,FPCNB,prac,3,3,14
D_TPE,1,1,1,0.538466287,1,0,FPCNB,prac,3,3,14
D_TPE,1,2,1,0.4083737,1,0,FPCNB,prac,3,3,14
D_TPE,1,3,1,0.359138452,1,1,FPCNB,prac,3,3,14
D_TPE,1,4,1,0.460330909,1,0,FPCNB,prac,3,3,14
D_TPE,1,5,1,0.435648647,1,0,FPCNB,prac,3,3,14
D_TPE,1,6,1,0.56775876,1,1,FPCNB,prac,3,3,14
D_TPE,1,7,1,0.471398774,1,0,FPCNB,prac,3,3,14
D_TPE,1,8,1,0.363389145,1,1,FPCNB,prac,3,3,14
D_TPE,1,9,1,0.58631734,1,0,FPCNB,prac,3,3,14
D_TPE,1,10,1,0.426266689,1,1,FPCNB,prac,3,3,14
D_TPE,1,11,1,0.40069307,1,0,FPCNB,prac,3,3,14
D_TPE,1,12,1,0.421745142,1,1,FPCNB,prac,3,3,14
D_TPE,1,13,1,0.361554512,1,0,FPCNB,prac,3,3,14
D_TPE,1,14,1,0.45901119,1,0,FPCNB,prac,3,3,14
D_TPE,1,15,1,0.505851238,1,0,FPCNB,prac,3,3,14
D_TPE,1,16,1,0.417544882,1,0,FPCNB,prac,3,3,14
D_TPE,1,17,1,0.387515947,1,0,FPCNB,prac,3,3,14
D_TPE,1,18,1,0.520548418,1,1,FPCNB,prac,3,3,14
D_TPE,2,1,1,0.333950577,1,0,FPCNB,prac,3,3,14
D_TPE,2,2,1,0.993567244,0,1,FPCNB,prac,3,3,14
D_TPE,2,3,1,0.500344058,0,0,FPCNB,prac,3,3,14
D_TPE,2,4,1,0.96423925,1,1,FPCNB,prac,3,3,14
D_TPE,2,5,1,0.625504102,1,0,FPCNB,prac,3,3,14
D_TPE,2,6,1,0.548094677,1,0,FPCNB,prac,3,3,14
D_TPE,2,7,1,0.535593151,1,0,FPCNB,prac,3,3,14
D_TPE,2,8,1,0.362884355,1,1,FPCNB,prac,3,3,14
D_TPE,2,9,1,0.39822601,1,0,FPCNB,prac,3,3,14
D_TPE,2,10,1,0.547288137,1,0,FPCNB,prac,3,3,14
D_TPE,2,11,1,0.37804258,1,1,FPCNB,prac,3,3,14
D_TPE,2,12,1,0.639526908,1,0,FPCNB,prac,3,3,14
D_TPE,2,13,1,0.509500557,1,0,FPCNB,prac,3,3,14
D_TPE,2,14,1,0.576473987,1,1,FPCNB,prac,3,3,14
D_TPE,2,15,1,0.427609695,1,0,FPCNB,prac,3,3,14
D_TPE,2,16,1,0.347642819,1,1,FPCNB,prac,3,3,14
D_TPE,2,17,1,0.469204463,1,0,FPCNB,prac,3,3,14
D_TPE,2,18,1,0.389608223,1,1,FPCNB,prac,3,3,14
D_TPE,0,1,1,1.5472130330000482,1,0,vertex,2,2,2,7
D_TPE,0,2,1,0.45025419299997793,1,0,vertex,2,2,2,7
D_TPE,0,3,1,0.4097607969999899,1,0,vertex,2,2,2,7
D_TPE,0,4,1,0.35572396899999603,1,0,vertex,2,2,2,7
D_TPE,0,5,1,0.3302997929999947,1,1,vertex,2,2,2,7
D_TPE,0,6,1,0.4758269940000446,1,0,vertex,2,2,2,7
D_TPE,0,7,1,0.5215153929999587,1,1,vertex,2,2,2,7
D_TPE,0,8,1,0.32365044300001955,1,0,vertex,2,2,2,7
D_TPE,0,9,1,0.496519123999974,1,0,vertex,2,2,2,7
D_TPE,0,10,1,0.6831074289999606,1,0,vertex,2,2,2,7
D_TPE,0,11,1,0.37658712400002514,1,1,vertex,2,2,2,7
D_TPE,0,12,1,0.5024065400000381,1,0,vertex,2,2,2,7
D_TPE,0,13,1,0.52750168700004,1,1,vertex,2,2,2,7
D_TPE,0,14,1,0.44113913699993645,1,0,vertex,2,2,2,7
D_TPE,0,15,1,0.5575154240000302,1,0,vertex,2,2,2,7
D_TPE,0,16,1,0.5590911360000064,1,1,vertex,2,2,2,7
D_TPE,0,17,1,0.35710981299996547,1,0,vertex,2,2,2,7
D_TPE,0,18,1,0.41191660200001934,1,1,vertex,2,2,2,7
D_TPE,1,1,1,0.7611162050000075,1,0,vertex,2,2,2,7
D_TPE,1,2,1,0.42110901499995634,1,0,vertex,2,2,2,7
D_TPE,1,3,1,0.5381210499999725,1,1,vertex,2,2,2,7
D_TPE,1,4,1,0.5177764200000183,1,0,vertex,2,2,2,7
D_TPE,1,5,1,0.42394603899992944,1,0,vertex,2,2,2,7
D_TPE,1,6,1,0.3646561779999047,1,1,vertex,2,2,2,7
D_TPE,1,7,1,0.5121657810000215,1,0,vertex,2,2,2,7
D_TPE,1,8,1,0.44861388200001784,1,0,vertex,2,2,2,7
D_TPE,1,9,1,0.40025435300003664,1,0,vertex,2,2,2,7
D_TPE,1,10,1,0.36244211500002166,1,1,vertex,2,2,2,7
D_TPE,1,11,1,0.46497889700003725,1,0,vertex,2,2,2,7
D_TPE,1,12,1,0.7424219669999275,1,0,vertex,2,2,2,7
D_TPE,1,13,1,0.5951839640000571,1,1,vertex,2,2,2,7
D_TPE,1,14,1,0.5446709530000362,1,0,vertex,2,2,2,7
D_TPE,1,15,1,0.6864313089999996,1,0,vertex,2,2,2,7
D_TPE,1,16,1,0.7039087020000352,1,1,vertex,2,2,2,7
D_TPE,1,17,1,0.44081378099997437,1,0,vertex,2,2,2,7
D_TPE,1,18,1,1.5450169179999875,1,1,vertex,2,2,2,7
D_TPE,2,1,1,0.359821527999884,0,1,vertex,2,2,2,7
D_TPE,2,2,1,0.5504151069999352,1,0,vertex,2,2,2,7
D_TPE,2,3,1,0.5186021360000268,1,0,vertex,2,2,2,7
D_TPE,2,4,1,0.35475178000001506,1,1,vertex,2,2,2,7
D_TPE,2,5,1,0.42939112199997,1,0,vertex,2,2,2,7
D_TPE,2,6,1,0.5612300220000179,1,0,vertex,2,2,2,7
D_TPE,2,7,1,0.4973409310000534,1,1,vertex,2,2,2,7
D_TPE,2,8,1,0.503362609000078,1,0,vertex,2,2,2,7
D_TPE,2,9,1,0.4180689859999802,1,0,vertex,2,2,2,7
D_TPE,2,10,1,1.013152287000139,1,0,vertex,2,2,2,7
D_TPE,2,11,1,0.7861658369999986,1,1,vertex,2,2,2,7
D_TPE,2,12,1,1.0997850149999522,0,0,vertex,2,2,2,7
D_TPE,2,13,1,0.7354654079999818,1,0,vertex,2,2,2,7
D_TPE,2,14,1,0.3495260899999266,1,1,vertex,2,2,2,7
D_TPE,2,15,1,0.5845659499998419,1,0,vertex,2,2,2,7
D_TPE,2,16,1,0.5203389119999429,1,1,vertex,2,2,2,7
D_TPE,2,17,1,1.1315652660000524,1,1,vertex,2,2,2,7
D_TPE,2,18,1,0.7178355159999228,0,0,vertex,2,2,2,7
D_TSU,0,1,1,0.556819507,1,0,DAN,prac,3,1,0
D_TSU,0,2,1,0.467177475,1,0,DAN,prac,3,1,0
D_TSU,0,3,1,0.363276777,1,1,DAN,prac,3,1,0
D_TSU,0,4,1,0.482274315,1,0,DAN,prac,3,1,0
D_TSU,0,5,1,0.520089333,1,1,DAN,prac,3,1,0
D_TSU,0,6,1,0.38153116,1,0,DAN,prac,3,1,0
D_TSU,0,7,1,0.458000906,1,1,DAN,prac,3,1,0
D_TSU,0,8,1,0.56866878,1,0,DAN,prac,3,1,0
D_TSU,0,9,1,0.346410258,1,0,DAN,prac,3,1,0
D_TSU,0,10,1,0.980078695,1,0,DAN,prac,3,1,0
D_TSU,0,11,1,0.328535628,1,1,DAN,prac,3,1,0
D_TSU,0,12,1,0.358965234,1,0,DAN,prac,3,1,0
D_TSU,0,13,1,0.38448079,1,0,DAN,prac,3,1,0
D_TSU,0,14,1,0.319024545,1,0,DAN,prac,3,1,0
D_TSU,0,15,1,0.348548257,1,0,DAN,prac,3,1,0
D_TSU,0,16,1,0.932948324,1,1,DAN,prac,3,1,0
D_TSU,0,17,1,0.237601718,1,0,DAN,prac,3,1,0
D_TSU,0,18,1,0.51240411,1,1,DAN,prac,3,1,0
D_TSU,1,1,1,0.934290182,1,0,DAN,prac,3,1,0
D_TSU,1,2,1,0.509306936,1,0,DAN,prac,3,1,0
D_TSU,1,3,1,0.331481896,1,1,DAN,prac,3,1,0
D_TSU,1,4,1,0.316248525,1,0,DAN,prac,3,1,0
D_TSU,1,5,1,0.440413076,1,0,DAN,prac,3,1,0
D_TSU,1,6,1,0.349669972,1,1,DAN,prac,3,1,0
D_TSU,1,7,1,0.265942638,1,0,DAN,prac,3,1,0
D_TSU,1,8,1,0.38389683,1,1,DAN,prac,3,1,0
D_TSU,1,9,1,0.784948317,1,0,DAN,prac,3,1,0
D_TSU,1,10,1,0.416296794,1,1,DAN,prac,3,1,0
D_TSU,1,11,1,0.784579535,1,0,DAN,prac,3,1,0
D_TSU,1,12,1,0.915130427,1,1,DAN,prac,3,1,0
D_TSU,1,13,1,0.892853975,1,0,DAN,prac,3,1,0
D_TSU,1,14,1,0.61471435,1,0,DAN,prac,3,1,0
D_TSU,1,15,1,0.447731982,1,0,DAN,prac,3,1,0
D_TSU,1,16,1,0.603799005,1,0,DAN,prac,3,1,0
D_TSU,1,17,1,0.469800129,1,0,DAN,prac,3,1,0
D_TSU,1,18,1,0.664749656,1,1,DAN,prac,3,1,0
D_TSU,2,1,1,0.400038822,1,0,DAN,prac,3,1,0
D_TSU,2,2,1,0.246208932,0,1,DAN,prac,3,1,0
D_TSU,2,3,1,0.414814632,1,0,DAN,prac,3,1,0
D_TSU,2,4,1,0.53367313,1,1,DAN,prac,3,1,0
D_TSU,2,5,1,0.362257788,1,0,DAN,prac,3,1,0
D_TSU,2,6,1,0.42570634,1,0,DAN,prac,3,1,0
D_TSU,2,7,1,0.599948594,1,0,DAN,prac,3,1,0
D_TSU,2,8,1,0.334469773,1,1,DAN,prac,3,1,0
D_TSU,2,9,1,0.53564383,1,0,DAN,prac,3,1,0
D_TSU,2,10,1,0.319877579,1,0,DAN,prac,3,1,0
D_TSU,2,11,1,0.442419166,1,1,DAN,prac,3,1,0
D_TSU,2,12,1,0.920984631,1,0,DAN,prac,3,1,0
D_TSU,2,13,1,0.62222307,1,0,DAN,prac,3,1,0
D_TSU,2,14,1,0.345074267,1,1,DAN,prac,3,1,0
D_TSU,2,15,1,0.417351064,1,0,DAN,prac,3,1,0
D_TSU,2,16,1,0.521579307,1,1,DAN,prac,3,1,0
D_TSU,2,17,1,0.527401323,1,0,DAN,prac,3,1,0
D_TSU,2,18,1,0.5478591,1,1,DAN,prac,3,1,0
D_TSU,0,1,1,1.360112917,1,0,vertex,prac,2,3,14
D_TSU,0,2,1,0.863954854,1,0,vertex,prac,2,3,14
D_TSU,0,3,1,0.579060197,1,0,vertex,prac,2,3,14
D_TSU,0,4,1,0.380805052,1,0,vertex,prac,2,3,14
D_TSU,0,5,1,0.509484762,1,1,vertex,prac,2,3,14
D_TSU,0,6,1,0.274927854,1,0,vertex,prac,2,3,14
D_TSU,0,7,1,0.423883946,1,1,vertex,prac,2,3,14
D_TSU,0,8,1,0.302442454,1,0,vertex,prac,2,3,14
D_TSU,0,9,1,0.375571895,1,0,vertex,prac,2,3,14
D_TSU,0,10,1,0.328719156,1,0,vertex,prac,2,3,14
D_TSU,0,11,1,0.444016312,1,1,vertex,prac,2,3,14
D_TSU,0,12,1,0.282123893,1,0,vertex,prac,2,3,14
D_TSU,0,13,1,0.435843567,1,1,vertex,prac,2,3,14
D_TSU,0,14,1,0.322468327,1,0,vertex,prac,2,3,14
D_TSU,0,15,1,0.347641326,1,0,vertex,prac,2,3,14
D_TSU,0,16,1,0.436089585,1,1,vertex,prac,2,3,14
D_TSU,0,17,1,0.345854194,1,0,vertex,prac,2,3,14
D_TSU,0,18,1,0.465112682,1,1,vertex,prac,2,3,14
D_TSU,1,1,1,0.443974732,1,0,vertex,prac,2,3,14
D_TSU,1,2,1,0.463495535,1,0,vertex,prac,2,3,14
D_TSU,1,3,1,0.31945751,1,1,vertex,prac,2,3,14
D_TSU,1,4,1,0.214390107,1,0,vertex,prac,2,3,14
D_TSU,1,5,1,0.444713767,1,0,vertex,prac,2,3,14
D_TSU,1,6,1,0.524579113,1,1,vertex,prac,2,3,14
D_TSU,1,7,1,0.27560224,1,0,vertex,prac,2,3,14
D_TSU,1,8,1,0.372999014,1,0,vertex,prac,2,3,14
D_TSU,1,9,1,0.387810958,1,0,vertex,prac,2,3,14
D_TSU,1,10,1,0.588301085,1,1,vertex,prac,2,3,14
D_TSU,1,11,1,0.23842659,1,0,vertex,prac,2,3,14
D_TSU,1,12,1,0.48818054,1,0,vertex,prac,2,3,14
D_TSU,1,13,1,0.42610626,1,1,vertex,prac,2,3,14
D_TSU,1,14,1,0.238121635,1,0,vertex,prac,2,3,14
D_TSU,1,15,1,0.414235622,1,0,vertex,prac,2,3,14
D_TSU,1,16,1,0.30632725,1,1,vertex,prac,2,3,14
D_TSU,1,17,1,0.263066903,1,0,vertex,prac,2,3,14
D_TSU,1,18,1,0.31081232,1,1,vertex,prac,2,3,14
D_TSU,2,1,1,0.467586752,0,1,vertex,prac,2,3,14
D_TSU,2,2,1,0.291412827,1,0,vertex,prac,2,3,14
D_TSU,2,3,1,0.47687444,1,0,vertex,prac,2,3,14
D_TSU,2,4,1,0.416985412,1,1,vertex,prac,2,3,14
D_TSU,2,5,1,0.302432784,1,0,vertex,prac,2,3,14
D_TSU,2,6,1,0.414455552,1,0,vertex,prac,2,3,14
D_TSU,2,7,1,0.378883132,1,1,vertex,prac,2,3,14
D_TSU,2,8,1,0.273530397,1,0,vertex,prac,2,3,14
D_TSU,2,9,1,0.345558976,1,0,vertex,prac,2,3,14
D_TSU,2,10,1,0.39079637,1,0,vertex,prac,2,3,14
D_TSU,2,11,1,0.535919179,1,1,vertex,prac,2,3,14
D_TSU,2,12,1,0.283239502,1,0,vertex,prac,2,3,14
D_TSU,2,13,1,0.34703021,1,0,vertex,prac,2,3,14
D_TSU,2,14,1,0.319134127,1,1,vertex,prac,2,3,14
D_TSU,2,15,1,0.418456127,1,0,vertex,prac,2,3,14
D_TSU,2,16,1,0.410560108,1,1,vertex,prac,2,3,14
D_TSU,2,17,1,0.613455154,1,1,vertex,prac,2,3,14
D_TSU,2,18,1,0.464278748,1,0,vertex,prac,2,3,14
D_VAZ,0,1,1,0.4518237310001041,1,0,DAN,prac,1,3,28
D_VAZ,0,2,1,0.3712414340000123,1,0,DAN,prac,1,3,28
D_VAZ,0,3,1,0.3585536180000872,1,1,DAN,prac,1,3,28
D_VAZ,0,4,1,0.36499211000000287,1,0,DAN,prac,1,3,28
D_VAZ,0,5,1,0.40798822700003257,1,1,DAN,prac,1,3,28
D_VAZ,0,6,1,0.4055928620000486,1,0,DAN,prac,1,3,28
D_VAZ,0,7,1,0.40866463800011843,1,0,DAN,prac,1,3,28
D_VAZ,0,8,1,0.4559164019999571,1,1,DAN,prac,1,3,28
D_VAZ,0,9,1,0.6526570649998575,1,0,DAN,prac,1,3,28
D_VAZ,0,10,1,0.45684771699984594,1,1,DAN,prac,1,3,28
D_VAZ,0,11,1,0.4530053470000439,1,0,DAN,prac,1,3,28
D_VAZ,0,12,1,0.4980802820000463,1,0,DAN,prac,1,3,28
D_VAZ,0,13,1,0.49990117000015744,1,1,DAN,prac,1,3,28
D_VAZ,0,14,1,0.274099969999952,1,0,DAN,prac,1,3,28
D_VAZ,0,15,1,0.3326800649999768,1,0,DAN,prac,1,3,28
D_VAZ,0,16,1,0.3436514669999724,1,0,DAN,prac,1,3,28
D_VAZ,0,17,1,0.3437019179998515,1,0,DAN,prac,1,3,28
D_VAZ,0,18,1,0.413229728000033,1,1,DAN,prac,1,3,28
D_VAZ,1,1,1,0.6186506779999945,1,0,DAN,prac,1,3,28
D_VAZ,1,2,1,0.3861247600000297,0,0,DAN,prac,1,3,28
D_VAZ,1,3,1,0.48470848000010847,1,0,DAN,prac,1,3,28
D_VAZ,1,4,1,0.4669091149999076,1,1,DAN,prac,1,3,28
D_VAZ,1,5,1,0.583967715999961,1,0,DAN,prac,1,3,28
D_VAZ,1,6,1,0.3762182800001028,1,0,DAN,prac,1,3,28
D_VAZ,1,7,1,0.7029836389999673,1,0,DAN,prac,1,3,28
D_VAZ,1,8,1,0.7257442120001087,1,1,DAN,prac,1,3,28
D_VAZ,1,9,1,0.4629434680000486,1,0,DAN,prac,1,3,28
D_VAZ,1,10,1,0.7526439819998814,1,1,DAN,prac,1,3,28
D_VAZ,1,11,1,0.5966060820001076,1,0,DAN,prac,1,3,28
D_VAZ,1,12,1,0.6340952720001951,1,0,DAN,prac,1,3,28
D_VAZ,1,13,1,0.43413792900014414,1,1,DAN,prac,1,3,28
D_VAZ,1,14,1,0.7026127099998121,1,0,DAN,prac,1,3,28
D_VAZ,1,15,1,0.4314417450000292,1,1,DAN,prac,1,3,28
D_VAZ,1,16,1,0.4255338450000181,1,0,DAN,prac,1,3,28
D_VAZ,1,17,1,0.4298053400000299,1,1,DAN,prac,1,3,28
D_VAZ,1,18,1,0.4921606860000338,1,0,DAN,prac,1,3,28
D_VAZ,2,1,1,0.5248191850000694,1,0,DAN,prac,1,3,28
D_VAZ,2,2,1,0.3734155960000862,1,0,DAN,prac,1,3,28
D_VAZ,2,3,1,0.5760124170001291,1,1,DAN,prac,1,3,28
D_VAZ,2,4,1,0.6525061669999559,1,0,DAN,prac,1,3,28
D_VAZ,2,5,1,0.6594137829999909,1,0,DAN,prac,1,3,28
D_VAZ,2,6,1,0.9440136659998188,1,0,DAN,prac,1,3,28
D_VAZ,2,7,1,0.6680875800000194,1,0,DAN,prac,1,3,28
D_VAZ,2,8,1,0.3063616199999615,1,1,DAN,prac,1,3,28
D_VAZ,2,9,1,0.5451621629999863,1,0,DAN,prac,1,3,28
D_VAZ,2,10,1,0.7487127930000952,1,1,DAN,prac,1,3,28
D_VAZ,2,11,1,0.7573510740000984,1,0,DAN,prac,1,3,28
D_VAZ,2,12,1,0.7179465550000259,1,0,DAN,prac,1,3,28
D_VAZ,2,13,1,0.8117420910000419,1,1,DAN,prac,1,3,28
D_VAZ,2,14,1,0.8330519349999577,1,0,DAN,prac,1,3,28
D_VAZ,2,15,1,0.8596740460000092,1,1,DAN,prac,1,3,28
D_VAZ,2,16,1,0.7473829789998945,1,0,DAN,prac,1,3,28
D_VAZ,2,17,1,0.3472854199999347,1,1,DAN,prac,1,3,28
D_VAZ,2,18,1,0.756516430000147,1,0,DAN,prac,1,3,28
D_VAZ,0,1,1,0.75521239200134,1,0,FPCNB,pre,3,2,14
D_VAZ,0,2,1,0.5450590689997625,1,0,FPCNB,pre,3,2,14
D_VAZ,0,3,1,0.37281494600028964,1,1,FPCNB,pre,3,2,14
D_VAZ,0,4,1,0.32525894200080074,1,0,FPCNB,pre,3,2,14
D_VAZ,0,5,1,0.4453409299985651,1,1,FPCNB,pre,3,2,14
D_VAZ,0,6,1,0.2787932320006803,1,0,FPCNB,pre,3,2,14
D_VAZ,0,7,1,0.4266907319997699,1,1,FPCNB,pre,3,2,14
D_VAZ,0,8,1,0.5571212040013052,1,0,FPCNB,pre,3,2,14
D_VAZ,0,9,1,0.45847269400110235,1,0,FPCNB,pre,3,2,14
D_VAZ,0,10,1,0.3925601680002728,1,0,FPCNB,pre,3,2,14
D_VAZ,0,11,1,0.5464776229982817,1,1,FPCNB,pre,3,2,14
D_VAZ,0,12,1,0.39003557799878763,1,0,FPCNB,pre,3,2,14
D_VAZ,0,13,1,0.37457301399990683,1,0,FPCNB,pre,3,2,14
D_VAZ,0,14,1,0.4259181500001432,1,0,FPCNB,pre,3,2,14
D_VAZ,0,15,1,0.3629643610001949,1,0,FPCNB,pre,3,2,14
D_VAZ,0,16,1,0.5605155440007366,1,1,FPCNB,pre,3,2,14
D_VAZ,0,17,1,0.38976723800078616,1,0,FPCNB,pre,3,2,14
D_VAZ,0,18,1,0.5977102060005564,1,1,FPCNB,pre,3,2,14
D_VAZ,1,1,1,0.8540538750003179,1,0,FPCNB,pre,3,2,14
D_VAZ,1,2,1,0.6800057489999745,1,0,FPCNB,pre,3,2,14
D_VAZ,1,3,1,0.489030028000343,1,1,FPCNB,pre,3,2,14
D_VAZ,1,4,1,0.3624768749996292,1,0,FPCNB,pre,3,2,14
D_VAZ,1,5,1,0.6062492080000084,1,0,FPCNB,pre,3,2,14
D_VAZ,1,6,1,0.5749129920004634,1,1,FPCNB,pre,3,2,14
D_VAZ,1,7,1,0.5557386260006751,1,0,FPCNB,pre,3,2,14
D_VAZ,1,8,1,0.5910760200004006,1,1,FPCNB,pre,3,2,14
D_VAZ,1,9,1,0.5958285489996342,1,0,FPCNB,pre,3,2,14
D_VAZ,1,10,1,0.48866536099922087,1,1,FPCNB,pre,3,2,14
D_VAZ,1,11,1,0.5417051829990669,1,0,FPCNB,pre,3,2,14
D_VAZ,1,12,1,0.6619576360008068,1,1,FPCNB,pre,3,2,14
D_VAZ,1,13,1,0.6309476650003489,1,0,FPCNB,pre,3,2,14
D_VAZ,1,14,1,0.7426795000010316,1,0,FPCNB,pre,3,2,14
D_VAZ,1,15,1,0.5282662959998561,1,0,FPCNB,pre,3,2,14
D_VAZ,1,16,1,0.7700595160004013,1,0,FPCNB,pre,3,2,14
D_VAZ,1,17,1,0.42738368999926024,1,0,FPCNB,pre,3,2,14
D_VAZ,1,18,1,0.3916568390013708,1,1,FPCNB,pre,3,2,14
D_VAZ,2,1,1,0.48901093499989656,1,0,FPCNB,pre,3,2,14
D_VAZ,2,2,1,0.4001807899985579,0,1,FPCNB,pre,3,2,14
D_VAZ,2,3,1,0.7934906320006121,1,0,FPCNB,pre,3,2,14
D_VAZ,2,4,1,0.5795652910001081,1,1,FPCNB,pre,3,2,14
D_VAZ,2,5,1,1.0427019329999894,1,0,FPCNB,pre,3,2,14
D_VAZ,2,6,1,1.563665014000435,1,0,FPCNB,pre,3,2,14
D_VAZ,2,7,1,1.4769597699996666,1,0,FPCNB,pre,3,2,14
D_VAZ,2,8,1,1.2429907229998207,1,1,FPCNB,pre,3,2,14
D_VAZ,2,9,1,1.8201881130007678,1,0,FPCNB,pre,3,2,14
D_VAZ,2,10,1,1.2224590570003784,1,0,FPCNB,pre,3,2,14
D_VAZ,2,11,1,0.642366531999869,1,1,FPCNB,pre,3,2,14
D_VAZ,2,12,1,0.9464318659993296,1,0,FPCNB,pre,3,2,14
D_VAZ,2,13,1,1.1206081600012112,1,0,FPCNB,pre,3,2,14
D_VAZ,2,14,1,0.7897835179992398,1,1,FPCNB,pre,3,2,14
D_VAZ,2,15,1,1.0037093109986017,1,0,FPCNB,pre,3,2,14
D_VAZ,2,16,1,0.7161816989992076,1,1,FPCNB,pre,3,2,14
D_VAZ,2,17,1,0.8610386580003251,1,0,FPCNB,pre,3,2,14
D_VAZ,2,18,1,0.8176188920006098,1,1,FPCNB,pre,3,2,14
D_VAZ,0,1,1,1.0312990530001116,1,0,vertex,1,2,1,0
D_VAZ,0,2,1,0.7962845699994432,1,0,vertex,1,2,1,0
D_VAZ,0,3,1,0.7561008169996057,1,0,vertex,1,2,1,0
D_VAZ,0,4,1,0.3423365680000643,1,0,vertex,1,2,1,0
D_VAZ,0,5,1,0.4823990529994262,1,1,vertex,1,2,1,0
D_VAZ,0,6,1,0.32629894700039586,1,0,vertex,1,2,1,0
D_VAZ,0,7,1,0.5481191830003809,1,1,vertex,1,2,1,0
D_VAZ,0,8,1,0.4053556640001261,1,0,vertex,1,2,1,0
D_VAZ,0,9,1,0.3702824090005379,1,0,vertex,1,2,1,0
D_VAZ,0,10,1,0.5795041969995509,1,0,vertex,1,2,1,0
D_VAZ,0,11,1,0.5628800819995377,1,1,vertex,1,2,1,0
D_VAZ,0,12,1,0.34073650400023325,1,0,vertex,1,2,1,0
D_VAZ,0,13,1,0.42407844599983946,1,1,vertex,1,2,1,0
D_VAZ,0,14,1,0.45529270299994096,1,0,vertex,1,2,1,0
D_VAZ,0,15,1,0.7265145690007557,1,0,vertex,1,2,1,0
D_VAZ,0,16,1,0.3286902400004692,1,1,vertex,1,2,1,0
D_VAZ,0,17,1,0.33533305000037217,1,0,vertex,1,2,1,0
D_VAZ,0,18,1,0.3911810220006373,1,1,vertex,1,2,1,0
D_VAZ,1,1,1,0.6485260079998625,1,0,vertex,1,2,1,0
D_VAZ,1,2,1,0.46712408999974286,1,0,vertex,1,2,1,0
D_VAZ,1,3,1,0.654044619999695,1,1,vertex,1,2,1,0
D_VAZ,1,4,1,0.7236565679995692,1,0,vertex,1,2,1,0
D_VAZ,1,5,1,0.5491012279999268,1,0,vertex,1,2,1,0
D_VAZ,1,6,1,0.5298060499999337,1,1,vertex,1,2,1,0
D_VAZ,1,7,1,0.5776454420001755,1,0,vertex,1,2,1,0
D_VAZ,1,8,1,0.6707226549997358,1,0,vertex,1,2,1,0
D_VAZ,1,9,1,0.9486428990003333,1,0,vertex,1,2,1,0
D_VAZ,1,10,1,0.6272560460001841,1,1,vertex,1,2,1,0
D_VAZ,1,11,1,0.6570966340004816,1,0,vertex,1,2,1,0
D_VAZ,1,12,1,0.781347829999504,1,0,vertex,1,2,1,0
D_VAZ,1,13,1,0.5305235300002096,1,1,vertex,1,2,1,0
D_VAZ,1,14,1,0.6392325700007859,1,0,vertex,1,2,1,0
D_VAZ,1,15,1,0.6065897320004296,1,0,vertex,1,2,1,0
D_VAZ,1,16,1,0.33014439299950027,1,1,vertex,1,2,1,0
D_VAZ,1,17,1,0.46590061300048546,1,0,vertex,1,2,1,0
D_VAZ,1,18,1,1.600674565999725,1,1,vertex,1,2,1,0
D_VAZ,2,1,1,0.4616707019995374,0,1,vertex,1,2,1,0
D_VAZ,2,2,1,0.7824461160007559,1,0,vertex,1,2,1,0
D_VAZ,2,3,1,1.7707165889996759,1,0,vertex,1,2,1,0
D_VAZ,2,4,1,0.7761912519999896,1,1,vertex,1,2,1,0
D_VAZ,2,5,1,0.859426644999985,1,0,vertex,1,2,1,0
D_VAZ,2,6,1,0.9394194060005248,1,0,vertex,1,2,1,0
D_VAZ,2,7,1,0.6626515580001069,1,1,vertex,1,2,1,0
D_VAZ,2,8,1,0.6172147730003417,1,0,vertex,1,2,1,0
D_VAZ,2,9,1,1.4876180630008093,1,0,vertex,1,2,1,0
D_VAZ,2,10,1,1.2462531279998075,1,0,vertex,1,2,1,0
D_VAZ,2,11,1,0.9546655640006065,0,1,vertex,1,2,1,0
D_VAZ,2,12,1,1.3731292190004751,1,0,vertex,1,2,1,0
D_VAZ,2,13,1,1.868874109999524,1,0,vertex,1,2,1,0
D_VAZ,2,14,1,0.5869616710006085,1,1,vertex,1,2,1,0
D_VAZ,2,15,1,0.8579531349996614,1,0,vertex,1,2,1,0
D_VAZ,2,16,1,0.9255337499998859,1,1,vertex,1,2,1,0
D_VAZ,2,17,1,1.4897976940001172,1,1,vertex,1,2,1,0
D_VAZ,2,18,1,1.3741793700000926,1,0,vertex,1,2,1,0
P_BWR,0,1,1,0.5159142429997701,1,0,DAN,prac,3,2,14
P_BWR,0,2,1,0.31113716000027125,1,0,DAN,prac,3,2,14
P_BWR,0,3,1,0.41076964800004134,1,1,DAN,prac,3,2,14
P_BWR,0,4,1,0.40115344800005914,1,0,DAN,prac,3,2,14
P_BWR,0,5,1,0.4807313729997986,1,1,DAN,prac,3,2,14
P_BWR,0,6,1,0.38323401000025115,1,0,DAN,prac,3,2,14
P_BWR,0,7,1,0.8506245499997931,1,1,DAN,prac,3,2,14
P_BWR,0,8,1,0.2951422879996244,1,0,DAN,prac,3,2,14
P_BWR,0,9,1,0.31479166500002975,1,0,DAN,prac,3,2,14
P_BWR,0,10,1,0.2838371980001284,1,0,DAN,prac,3,2,14
P_BWR,0,11,1,0.4554239320000306,1,1,DAN,prac,3,2,14
P_BWR,0,12,1,0.41197798200028046,1,0,DAN,prac,3,2,14
P_BWR,0,13,1,0.3887847270002567,1,0,DAN,prac,3,2,14
P_BWR,0,14,1,0.3323235679999925,1,0,DAN,prac,3,2,14
P_BWR,0,15,1,0.3022930090000955,1,0,DAN,prac,3,2,14
P_BWR,0,16,1,0.260081954999805,0,1,DAN,prac,3,2,14
P_BWR,0,17,1,0.3848930950002796,1,0,DAN,prac,3,2,14
P_BWR,0,18,1,0.18551833699984854,1,1,DAN,prac,3,2,14
P_BWR,1,1,1,0.8338339599999927,1,0,DAN,prac,3,2,14
P_BWR,1,2,1,0.6011306579998745,0,0,DAN,prac,3,2,14
P_BWR,1,3,1,0.3231962370000474,0,1,DAN,prac,3,2,14
P_BWR,1,4,1,0.4456237780000265,0,0,DAN,prac,3,2,14
P_BWR,1,5,1,0.33046328299997185,0,0,DAN,prac,3,2,14
P_BWR,1,6,1,0.3620392200000424,1,1,DAN,prac,3,2,14
P_BWR,1,7,1,0.42884004400002596,1,0,DAN,prac,3,2,14
P_BWR,1,8,1,0.5186032340002384,0,1,DAN,prac,3,2,14
P_BWR,1,9,1,0.37481500200010487,1,0,DAN,prac,3,2,14
P_BWR,1,10,1,0.19779117999996743,1,1,DAN,prac,3,2,14
P_BWR,1,11,1,0.27492951699969126,1,0,DAN,prac,3,2,14
P_BWR,1,12,1,0.46420472199997675,1,1,DAN,prac,3,2,14
P_BWR,1,13,1,0.6599030839997795,1,0,DAN,prac,3,2,14
P_BWR,1,14,1,0.5080657499997869,0,0,DAN,prac,3,2,14
P_BWR,1,15,1,0.45434912500013525,1,0,DAN,prac,3,2,14
P_BWR,1,16,1,0.3101372379996974,1,0,DAN,prac,3,2,14
P_BWR,1,17,1,0.3616589939997539,0,0,DAN,prac,3,2,14
P_BWR,1,18,1,0.2620018259999597,0,1,DAN,prac,3,2,14
P_BWR,1,1,2,0.6378099920002569,1,0,DAN,prac,3,2,14
P_BWR,1,2,2,0.9233721270002206,0,0,DAN,prac,3,2,14
P_BWR,1,3,2,0.6541378689998965,0,1,DAN,prac,3,2,14
P_BWR,1,4,2,0.6048017079997408,0,0,DAN,prac,3,2,14
P_BWR,1,5,2,0.3713633209999898,0,0,DAN,prac,3,2,14
P_BWR,1,6,2,0.43559918399978415,1,1,DAN,prac,3,2,14
P_BWR,1,7,2,0.4743357359998299,1,0,DAN,prac,3,2,14
P_BWR,1,8,2,0.42210528199984765,0,1,DAN,prac,3,2,14
P_BWR,1,9,2,0.6439935399998831,1,0,DAN,prac,3,2,14
P_BWR,1,10,2,0.4454522769997311,1,1,DAN,prac,3,2,14
P_BWR,1,11,2,0.3841482449997784,1,0,DAN,prac,3,2,14
P_BWR,1,12,2,0.3306843079999453,1,1,DAN,prac,3,2,14
P_BWR,1,13,2,0.5270666960000199,1,0,DAN,prac,3,2,14
P_BWR,1,14,2,0.4043855920003807,1,0,DAN,prac,3,2,14
P_BWR,1,15,2,0.37648435499977495,1,0,DAN,prac,3,2,14
P_BWR,1,16,2,0.3505430810000689,0,0,DAN,prac,3,2,14
P_BWR,1,17,2,0.4449704200001179,0,0,DAN,prac,3,2,14
P_BWR,1,18,2,0.4832597959998566,1,1,DAN,prac,3,2,14
P_BWR,1,1,3,0.5275557500003742,0,0,DAN,prac,3,2,14
P_BWR,1,2,3,0.5594212199998765,1,0,DAN,prac,3,2,14
P_BWR,1,3,3,1.3715961319999224,0,1,DAN,prac,3,2,14
P_BWR,1,4,3,0.4558801600001061,1,0,DAN,prac,3,2,14
P_BWR,1,5,3,0.6605802539997967,1,0,DAN,prac,3,2,14
P_BWR,1,6,3,0.5264562739998837,1,1,DAN,prac,3,2,14
P_BWR,1,7,3,0.2950677670000914,1,0,DAN,prac,3,2,14
P_BWR,1,8,3,0.4246989379998922,1,1,DAN,prac,3,2,14
P_BWR,1,9,3,0.5261406380000153,1,0,DAN,prac,3,2,14
P_BWR,1,10,3,0.8104733099999066,1,1,DAN,prac,3,2,14
P_BWR,1,11,3,0.6817049930000394,0,0,DAN,prac,3,2,14
P_BWR,1,12,3,0.43715947299961044,1,1,DAN,prac,3,2,14
P_BWR,1,13,3,0.482121152000218,1,0,DAN,prac,3,2,14
P_BWR,1,14,3,0.7628509619999022,1,0,DAN,prac,3,2,14
P_BWR,1,15,3,0.38778908499989484,1,0,DAN,prac,3,2,14
P_BWR,1,16,3,0.32541404799985685,0,0,DAN,prac,3,2,14
P_BWR,1,17,3,0.6260230109996883,1,0,DAN,prac,3,2,14
P_BWR,1,18,3,0.4647935650000363,1,1,DAN,prac,3,2,14
P_BWR,2,1,1,0.5088175010000668,0,0,DAN,prac,3,2,14
P_BWR,2,2,1,0.4218067599999813,1,1,DAN,prac,3,2,14
P_BWR,2,3,1,0.9383702879999873,1,0,DAN,prac,3,2,14
P_BWR,2,4,1,0.7374672969999665,0,1,DAN,prac,3,2,14
P_BWR,2,5,1,0.5569514019998678,1,0,DAN,prac,3,2,14
P_BWR,2,6,1,0.7337721079998119,0,0,DAN,prac,3,2,14
P_BWR,2,7,1,0.6697343620003267,0,0,DAN,prac,3,2,14
P_BWR,2,8,1,0.6174795719998656,1,1,DAN,prac,3,2,14
P_BWR,2,9,1,0.5660323699999026,1,0,DAN,prac,3,2,14
P_BWR,2,10,1,0.6163140859998748,1,0,DAN,prac,3,2,14
P_BWR,2,11,1,0.5575612540001202,1,1,DAN,prac,3,2,14
P_BWR,2,12,1,0.690784750000148,0,0,DAN,prac,3,2,14
P_BWR,2,13,1,0.5769994699999188,1,0,DAN,prac,3,2,14
P_BWR,2,14,1,0.5364637600000606,1,1,DAN,prac,3,2,14
P_BWR,2,15,1,0.5096195299997817,0,0,DAN,prac,3,2,14
P_BWR,2,16,1,0.6432984049997685,0,1,DAN,prac,3,2,14
P_BWR,2,17,1,0.6031683950000115,1,0,DAN,prac,3,2,14