subject,n_back,trialN,blockN,rt,correct,trialType,stim_site,timepoint,counterbalance,sessionNum,days
D_EMO,0,1,1,0.33732522800028164,1,0,DAN,pre,1,2,7
D_EMO,0,2,1,0.44744119999995746,1,1,DAN,pre,1,2,7
D_EMO,0,3,1,0.308357856999919,1,0,DAN,pre,1,2,7
D_EMO,0,4,1,0.3349417220001669,1,0,DAN,pre,1,2,7
D_EMO,0,5,1,0.33009539000022414,1,0,DAN,pre,1,2,7
D_EMO,0,6,1,0.41679053000007116,1,1,DAN,pre,1,2,7
D_EMO,0,7,1,0.3001872429999821,1,0,DAN,pre,1,2,7
D_EMO,0,8,1,0.3508049519996348,1,1,DAN,pre,1,2,7
D_EMO,0,9,1,0.29070018199990955,1,0,DAN,pre,1,2,7
D_EMO,0,10,1,0.3662399279996862,1,1,DAN,pre,1,2,7
D_EMO,0,11,1,0.28706113699990965,1,0,DAN,pre,1,2,7
D_EMO,0,12,1,0.4128095289997873,1,1,DAN,pre,1,2,7
D_EMO,0,13,1,0.3312761759998466,1,0,DAN,pre,1,2,7
D_EMO,0,14,1,0.4756565389998286,1,0,DAN,pre,1,2,7
D_EMO,0,15,1,0.3429211019997638,1,1,DAN,pre,1,2,7
D_EMO,0,16,1,0.32646718200021496,1,0,DAN,pre,1,2,7
D_EMO,0,17,1,0.3125378339996132,1,0,DAN,pre,1,2,7
D_EMO,0,18,1,0.30964650699979757,1,0,DAN,pre,1,2,7
D_EMO,0,1,2,0.4617071880002186,1,0,DAN,pre,1,2,7
D_EMO,0,2,2,0.35957290999976976,1,1,DAN,pre,1,2,7
D_EMO,0,3,2,0.33186324700000114,1,0,DAN,pre,1,2,7
D_EMO,0,4,2,0.3139949679998608,1,0,DAN,pre,1,2,7
D_EMO,0,5,2,0.29055071799984944,1,0,DAN,pre,1,2,7
D_EMO,0,6,2,0.30604645999983404,1,1,DAN,pre,1,2,7
D_EMO,0,7,2,0.28582158000017444,1,0,DAN,pre,1,2,7
D_EMO,0,8,2,0.3264504769999803,1,1,DAN,pre,1,2,7
D_EMO,0,9,2,0.2667673900000409,1,0,DAN,pre,1,2,7
D_EMO,0,10,2,0.36170348499990723,1,1,DAN,pre,1,2,7
D_EMO,0,11,2,0.38270272999989174,1,0,DAN,pre,1,2,7
D_EMO,0,12,2,0.41716120299997783,1,1,DAN,pre,1,2,7
D_EMO,0,13,2,0.26919227400003365,1,0,DAN,pre,1,2,7
D_EMO,0,14,2,0.29301212800010035,1,0,DAN,pre,1,2,7
D_EMO,0,15,2,0.49280730300006326,1,1,DAN,pre,1,2,7
D_EMO,0,16,2,0.7005410249998931,1,0,DAN,pre,1,2,7
D_EMO,0,17,2,0.5400259759999244,1,0,DAN,pre,1,2,7
D_EMO,0,18,2,0.3098019970002497,1,0,DAN,pre,1,2,7
D_EMO,0,1,3,0.42709721400024137,1,0,DAN,pre,1,2,7
D_EMO,0,2,3,0.41317872599984184,1,1,DAN,pre,1,2,7
D_EMO,0,3,3,0.48312040800010436,1,0,DAN,pre,1,2,7
D_EMO,0,4,3,0.43306221000011647,1,0,DAN,pre,1,2,7
D_EMO,0,5,3,0.2716170130001956,1,0,DAN,pre,1,2,7
D_EMO,0,6,3,0.30790679799974896,0,1,DAN,pre,1,2,7
D_EMO,0,7,3,0.3178255419998095,1,0,DAN,pre,1,2,7
D_EMO,0,8,3,0.2735537049998129,1,1,DAN,pre,1,2,7
D_EMO,0,9,3,0.2554691450000064,1,0,DAN,pre,1,2,7
D_EMO,0,10,3,0.4167757879999954,1,1,DAN,pre,1,2,7
D_EMO,0,11,3,0.2445118939999702,1,0,DAN,pre,1,2,7
D_EMO,0,12,3,0.37622706000001926,1,1,DAN,pre,1,2,7
D_EMO,0,13,3,0.28655164000019795,1,0,DAN,pre,1,2,7
D_EMO,0,14,3,0.4002576599996246,1,0,DAN,pre,1,2,7
D_EMO,0,15,3,0.31272374199988917,1,1,DAN,pre,1,2,7
D_EMO,0,16,3,0.2701672680000229,1,0,DAN,pre,1,2,7
D_EMO,0,17,3,0.2690219599999182,1,0,DAN,pre,1,2,7
D_EMO,0,18,3,0.3105550969999058,1,0,DAN,pre,1,2,7
D_EMO,0,1,4,0.3597817899999427,1,0,DAN,pre,1,2,7
D_EMO,0,2,4,0.3606102999997347,1,1,DAN,pre,1,2,7
D_EMO,0,3,4,0.22620555200001036,1,0,DAN,pre,1,2,7
D_EMO,0,4,4,0.3409163400001489,1,0,DAN,pre,1,2,7
D_EMO,0,5,4,0.31377070000007734,1,0,DAN,pre,1,2,7
D_EMO,0,6,4,0.3573071969999546,1,1,DAN,pre,1,2,7
D_EMO,0,7,4,0.264954360000047,1,0,DAN,pre,1,2,7
D_EMO,0,8,4,0.3576032060000216,1,1,DAN,pre,1,2,7
D_EMO,0,9,4,0.28924846300014906,1,0,DAN,pre,1,2,7
D_EMO,0,10,4,0.3709295789999487,1,1,DAN,pre,1,2,7
D_EMO,0,11,4,0.2875688839999384,1,0,DAN,pre,1,2,7
D_EMO,0,12,4,0.2913106279997919,1,1,DAN,pre,1,2,7
D_EMO,0,13,4,0.28005073300028016,1,0,DAN,pre,1,2,7
D_EMO,0,14,4,0.29833669200024815,1,0,DAN,pre,1,2,7
D_EMO,0,15,4,0.47391347500024494,1,1,DAN,pre,1,2,7
D_EMO,0,16,4,0.319352696000351,1,0,DAN,pre,1,2,7
D_EMO,0,17,4,0.28621739199979856,1,0,DAN,pre,1,2,7
D_EMO,0,18,4,0.2729931100002432,1,0,DAN,pre,1,2,7
D_EMO,1,1,1,0.35239327499994033,1,0,DAN,pre,1,2,7
D_EMO,1,2,1,0.4593570539996108,1,1,DAN,pre,1,2,7
D_EMO,1,3,1,0.3424495960002787,1,0,DAN,pre,1,2,7
D_EMO,1,4,1,0.31247631799988085,1,0,DAN,pre,1,2,7
D_EMO,1,5,1,0.31182790200000454,1,0,DAN,pre,1,2,7
D_EMO,1,6,1,0.560671375000311,1,1,DAN,pre,1,2,7
D_EMO,1,7,1,0.39411654000014096,1,0,DAN,pre,1,2,7
D_EMO,1,8,1,0.34398527700022896,1,0,DAN,pre,1,2,7
D_EMO,1,9,1,0.35776127500002985,1,1,DAN,pre,1,2,7
D_EMO,1,10,1,0.28847596800005704,1,0,DAN,pre,1,2,7
D_EMO,1,11,1,0.2420695020000494,1,1,DAN,pre,1,2,7
D_EMO,1,12,1,0.31749959699982355,1,0,DAN,pre,1,2,7
D_EMO,1,13,1,0.2688920949999556,1,0,DAN,pre,1,2,7
D_EMO,1,14,1,0.27012070000000676,1,0,DAN,pre,1,2,7
D_EMO,1,15,1,0.39440499400006956,1,0,DAN,pre,1,2,7
D_EMO,1,16,1,0.3591911399998935,0,1,DAN,pre,1,2,7
D_EMO,1,17,1,0.5167312220000895,1,0,DAN,pre,1,2,7
D_EMO,1,18,1,0.4714662119999957,1,1,DAN,pre,1,2,7
D_EMO,1,1,2,0.23883192299990696,1,0,DAN,pre,1,2,7
D_EMO,1,2,2,0.4328966399998535,1,0,DAN,pre,1,2,7
D_EMO,1,3,2,0.5261623020001025,1,1,DAN,pre,1,2,7
D_EMO,1,4,2,0.32634143099994617,1,0,DAN,pre,1,2,7
D_EMO,1,5,2,0.3685351159997481,1,1,DAN,pre,1,2,7
D_EMO,1,6,2,0.3161660099999608,1,0,DAN,pre,1,2,7
D_EMO,1,7,2,0.2900429480000639,1,1,DAN,pre,1,2,7
D_EMO,1,8,2,0.4108410050002931,1,0,DAN,pre,1,2,7
D_EMO,1,9,2,0.44440574500004004,1,0,DAN,pre,1,2,7
D_EMO,1,10,2,0.41450274699991496,1,0,DAN,pre,1,2,7
D_EMO,1,11,2,0.27081196500012084,1,1,DAN,pre,1,2,7
D_EMO,1,12,2,0.3021498859998246,1,0,DAN,pre,1,2,7
D_EMO,1,13,2,0.3608088930000122,1,0,DAN,pre,1,2,7
D_EMO,1,14,2,0.34632864800005336,1,1,DAN,pre,1,2,7
D_EMO,1,15,2,0.29837925500032725,1,0,DAN,pre,1,2,7
D_EMO,1,16,2,0.33451342999978806,0,0,DAN,pre,1,2,7
D_EMO,1,17,2,0.36135647799983417,1,0,DAN,pre,1,2,7
D_EMO,1,18,2,0.6039557019998938,1,1,DAN,pre,1,2,7
D_EMO,1,1,3,0.6068674699999974,1,0,DAN,pre,1,2,7
D_EMO,1,2,3,0.3274266600001283,1,1,DAN,pre,1,2,7
D_EMO,1,3,3,0.8897961039997426,1,0,DAN,pre,1,2,7
D_EMO,1,4,3,0.5542790019999302,1,0,DAN,pre,1,2,7
D_EMO,1,5,3,0.4009154939999462,1,1,DAN,pre,1,2,7
D_EMO,1,6,3,0.29705993600009606,1,0,DAN,pre,1,2,7
D_EMO,1,7,3,0.3182370129998162,1,1,DAN,pre,1,2,7
D_EMO,1,8,3,0.36869616500007396,1,0,DAN,pre,1,2,7
D_EMO,1,9,3,0.3596709630000987,1,0,DAN,pre,1,2,7
D_EMO,1,10,3,0.33826458800012915,0,1,DAN,pre,1,2,7
D_EMO,1,11,3,0.43305424500022127,0,0,DAN,pre,1,2,7
D_EMO,1,12,3,0.5086847550001039,0,1,DAN,pre,1,2,7
D_EMO,1,13,3,0.4860142289999203,1,0,DAN,pre,1,2,7
D_EMO,1,14,3,0.3870731350002643,1,0,DAN,pre,1,2,7
D_EMO,1,15,3,0.3494052799997007,1,0,DAN,pre,1,2,7
D_EMO,1,16,3,0.45873011000003316,1,0,DAN,pre,1,2,7
D_EMO,1,17,3,0.47138103699990097,1,0,DAN,pre,1,2,7
D_EMO,1,18,3,0.3104256320002605,1,1,DAN,pre,1,2,7
D_EMO,1,1,4,0.5890067239997734,0,0,DAN,pre,1,2,7
D_EMO,1,2,4,0.3579636380000011,1,0,DAN,pre,1,2,7
D_EMO,1,3,4,0.3582680330000585,0,1,DAN,pre,1,2,7
D_EMO,1,4,4,0.4188966800002163,1,0,DAN,pre,1,2,7
D_EMO,1,5,4,0.31770832399979554,1,1,DAN,pre,1,2,7
D_EMO,1,6,4,0.3464513439998882,1,0,DAN,pre,1,2,7
D_EMO,1,7,4,0.31991623399972013,1,0,DAN,pre,1,2,7
D_EMO,1,8,4,0.34348590999979933,1,1,DAN,pre,1,2,7
D_EMO,1,9,4,0.4925154519996795,1,0,DAN,pre,1,2,7
D_EMO,1,10,4,0.4091077729999597,1,0,DAN,pre,1,2,7
D_EMO,1,11,4,0.3077703859999019,1,1,DAN,pre,1,2,7
D_EMO,1,12,4,0.2704286550001598,1,0,DAN,pre,1,2,7
D_EMO,1,13,4,0.3388370699999541,1,0,DAN,pre,1,2,7
D_EMO,1,14,4,0.4027609449999545,0,1,DAN,pre,1,2,7
D_EMO,1,15,4,0.7230510199997298,1,0,DAN,pre,1,2,7
D_EMO,1,16,4,0.48769126099978166,1,1,DAN,pre,1,2,7
D_EMO,1,17,4,0.31770510500018645,1,0,DAN,pre,1,2,7
D_EMO,1,18,4,0.3061824579999666,1,0,DAN,pre,1,2,7
D_EMO,2,1,1,0.7402107399998386,1,0,DAN,pre,1,2,7
D_EMO,2,2,1,0.30692655800021384,1,0,DAN,pre,1,2,7
D_EMO,2,3,1,0.36256256699971345,1,0,DAN,pre,1,2,7
D_EMO,2,4,1,0.2891052029999628,1,1,DAN,pre,1,2,7
D_EMO,2,5,1,0.32886499899996124,1,0,DAN,pre,1,2,7
D_EMO,2,6,1,0.377243591000024,1,0,DAN,pre,1,2,7
D_EMO,2,7,1,0.3473015550002856,0,1,DAN,pre,1,2,7
D_EMO,2,8,1,0.4797243820003132,1,0,DAN,pre,1,2,7
D_EMO,2,9,1,0.4672053419999429,1,0,DAN,pre,1,2,7
D_EMO,2,10,1,0.36510262000001603,1,1,DAN,pre,1,2,7
D_EMO,2,11,1,0.3757077219997882,1,0,DAN,pre,1,2,7
D_EMO,2,12,1,0.6742888270000549,0,1,DAN,pre,1,2,7
D_EMO,2,13,1,0.4813859649998449,0,0,DAN,pre,1,2,7
D_EMO,2,14,1,0.8036856220001027,1,1,DAN,pre,1,2,7
D_EMO,2,15,1,0.5813920159998816,1,0,DAN,pre,1,2,7
D_EMO,2,16,1,0.3738309400000617,1,0,DAN,pre,1,2,7
D_EMO,2,17,1,0.5533550830000422,1,0,DAN,pre,1,2,7
D_EMO,2,18,1,0.5322801920001439,1,1,DAN,pre,1,2,7
D_EMO,2,1,2,0.8290198529998634,1,0,DAN,pre,1,2,7
D_EMO,2,2,2,0.6684770259998913,1,0,DAN,pre,1,2,7
D_EMO,2,3,2,0.34946851699987747,1,1,DAN,pre,1,2,7
D_EMO,2,4,2,0.40486060299963356,1,0,DAN,pre,1,2,7
D_EMO,2,5,2,0.6209192139999686,1,0,DAN,pre,1,2,7
D_EMO,2,6,2,0.4840756200001124,1,1,DAN,pre,1,2,7
D_EMO,2,7,2,0.33213792700007616,1,0,DAN,pre,1,2,7
D_EMO,2,8,2,0.634393836000072,1,1,DAN,pre,1,2,7
D_EMO,2,9,2,0.8961623919999511,1,0,DAN,pre,1,2,7
D_EMO,2,10,2,0.6187465500001963,1,0,DAN,pre,1,2,7
D_EMO,2,11,2,0.37650866800004223,1,1,DAN,pre,1,2,7
D_EMO,2,12,2,0.35424409999995987,1,0,DAN,pre,1,2,7
D_EMO,2,13,2,0.6407957480000732,1,0,DAN,pre,1,2,7
D_EMO,2,14,2,0.40462430600018706,1,0,DAN,pre,1,2,7
D_EMO,2,15,2,0.695978777000164,1,1,DAN,pre,1,2,7
D_EMO,2,16,2,0.5568890280001142,1,0,DAN,pre,1,2,7
D_EMO,2,17,2,0.37228728000036426,1,0,DAN,pre,1,2,7
D_EMO,2,18,2,0.583538370000042,1,1,DAN,pre,1,2,7
D_EMO,2,1,3,0.2566565399997671,1,0,DAN,pre,1,2,7
D_EMO,2,2,3,0.45529030599982434,1,0,DAN,pre,1,2,7
D_EMO,2,3,3,0.3410792270001366,1,0,DAN,pre,1,2,7
D_EMO,2,4,3,0.6425779199998942,1,1,DAN,pre,1,2,7
D_EMO,2,5,3,0.33277538800030015,1,0,DAN,pre,1,2,7
D_EMO,2,6,3,0.5890005040000688,1,0,DAN,pre,1,2,7
D_EMO,2,7,3,0.6824444750000112,1,1,DAN,pre,1,2,7
D_EMO,2,8,3,0.5798876599997129,1,0,DAN,pre,1,2,7
D_EMO,2,9,3,0.4044683720003377,0,0,DAN,pre,1,2,7
D_EMO,2,10,3,0.7012457880000511,1,1,DAN,pre,1,2,7
D_EMO,2,11,3,0.48769166900001437,1,0,DAN,pre,1,2,7
D_EMO,2,12,3,0.8851747150001756,1,1,DAN,pre,1,2,7
D_EMO,2,13,3,0.6196436099999119,1,0,DAN,pre,1,2,7
D_EMO,2,14,3,0.7616348100000323,0,0,DAN,pre,1,2,7
D_EMO,2,15,3,0.6951687220002896,1,1,DAN,pre,1,2,7
D_EMO,2,16,3,0.6659954479996486,1,0,DAN,pre,1,2,7
D_EMO,2,17,3,0.43374300200002835,0,0,DAN,pre,1,2,7
D_EMO,2,18,3,0.6430235900002117,1,1,DAN,pre,1,2,7
D_EMO,2,1,4,0.6063792239997383,0,0,DAN,pre,1,2,7
D_EMO,2,2,4,0.5688453150000896,0,0,DAN,pre,1,2,7
D_EMO,2,3,4,0.65956349399994,1,1,DAN,pre,1,2,7
D_EMO,2,4,4,0.5013428190000013,1,0,DAN,pre,1,2,7
D_EMO,2,5,4,0.5247678599998835,1,1,DAN,pre,1,2,7
D_EMO,2,6,4,0.336443689999669,1,0,DAN,pre,1,2,7
D_EMO,2,7,4,0.5293492350001543,1,0,DAN,pre,1,2,7
D_EMO,2,8,4,0.41074593799976356,1,1,DAN,pre,1,2,7
D_EMO,2,9,4,0.3397121660000266,1,0,DAN,pre,1,2,7
D_EMO,2,10,4,0.6412646750000022,0,0,DAN,pre,1,2,7
D_EMO,2,11,4,0.44394238999984736,0,1,DAN,pre,1,2,7
D_EMO,2,12,4,0.43659224999964863,1,0,DAN,pre,1,2,7
D_EMO,2,13,4,0.5341836399998101,1,1,DAN,pre,1,2,7
D_EMO,2,14,4,0.42569503499998973,1,0,DAN,pre,1,2,7
D_EMO,2,15,4,0.47834000199964066,0,0,DAN,pre,1,2,7
D_EMO,2,16,4,0.5852683519997299,1,0,DAN,pre,1,2,7
D_EMO,2,17,4,0.3851774300001125,1,0,DAN,pre,1,2,7
D_EMO,2,18,4,0.6304133519997777,1,1,DAN,pre,1,2,7
D_EMO,0,1,1,0.3117116729999907,1,0,DAN,post,4,2,7
D_EMO,0,2,1,0.25322552400029963,1,0,DAN,post,4,2,7
D_EMO,0,3,1,0.3096253550002075,1,0,DAN,post,4,2,7
D_EMO,0,4,1,0.285262972000055,1,0,DAN,post,4,2,7
D_EMO,0,5,1,0.41448109400062094,1,1,DAN,post,4,2,7
D_EMO,0,6,1,0.2858577309998509,1,0,DAN,post,4,2,7
D_EMO,0,7,1,0.2533133919996544,0,1,DAN,post,4,2,7
D_EMO,0,8,1,0.28093198999977176,1,0,DAN,post,4,2,7
D_EMO,0,9,1,0.31135453800015966,1,0,DAN,post,4,2,7
D_EMO,0,10,1,0.27296690399998624,1,0,DAN,post,4,2,7
D_EMO,0,11,1,0.27408383799956937,1,0,DAN,post,4,2,7
D_EMO,0,12,1,0.3625807399994301,1,1,DAN,post,4,2,7
D_EMO,0,13,1,0.21120427699952415,1,0,DAN,post,4,2,7
D_EMO,0,14,1,0.344596413000545,1,1,DAN,post,4,2,7
D_EMO,0,15,1,0.22035682299974724,1,0,DAN,post,4,2,7
D_EMO,0,16,1,0.31487847000062175,1,1,DAN,post,4,2,7
D_EMO,0,17,1,0.2670324830005484,1,0,DAN,post,4,2,7
D_EMO,0,18,1,0.3619250559995635,1,1,DAN,post,4,2,7
D_EMO,0,1,2,0.43903354899975966,1,0,DAN,post,4,2,7
D_EMO,0,2,2,0.24651190300028247,1,0,DAN,post,4,2,7
D_EMO,0,3,2,0.30494735299998865,1,0,DAN,post,4,2,7
D_EMO,0,4,2,0.3386946470000112,1,0,DAN,post,4,2,7
D_EMO,0,5,2,0.39030879999972967,1,1,DAN,post,4,2,7
D_EMO,0,6,2,0.27589843799978553,1,0,DAN,post,4,2,7
D_EMO,0,7,2,0.28263660999982676,1,1,DAN,post,4,2,7
D_EMO,0,8,2,0.21027463200061902,1,0,DAN,post,4,2,7
D_EMO,0,9,2,0.2559093380004924,1,0,DAN,post,4,2,7
D_EMO,0,10,2,0.2344343270005993,1,0,DAN,post,4,2,7
D_EMO,0,11,2,0.24848826200013718,1,0,DAN,post,4,2,7
D_EMO,0,12,2,0.32291110300047876,1,1,DAN,post,4,2,7
D_EMO,0,13,2,0.2334182120002879,1,0,DAN,post,4,2,7
D_EMO,0,14,2,0.3741606400008095,1,1,DAN,post,4,2,7
D_EMO,0,15,2,0.23297285799981182,1,0,DAN,post,4,2,7
D_EMO,0,16,2,0.40634645499994804,1,1,DAN,post,4,2,7
D_EMO,0,17,2,0.21694252399993275,1,0,DAN,post,4,2,7
D_EMO,0,18,2,0.33361440199951176,1,1,DAN,post,4,2,7
D_EMO,0,1,3,0.4907387369994467,1,0,DAN,post,4,2,7
D_EMO,0,2,3,0.29207100399980845,1,0,DAN,post,4,2,7
D_EMO,0,3,3,0.3288554149994525,1,0,DAN,post,4,2,7
D_EMO,0,4,3,0.2913798649997261,1,0,DAN,post,4,2,7
D_EMO,0,5,3,0.4340041719997316,1,1,DAN,post,4,2,7
D_EMO,0,6,3,0.2311181380000562,1,0,DAN,post,4,2,7
D_EMO,0,7,3,0.29660261499975604,1,1,DAN,post,4,2,7
D_EMO,0,8,3,0.25097843000003195,1,0,DAN,post,4,2,7
D_EMO,0,9,3,0.24699064700052986,1,0,DAN,post,4,2,7
D_EMO,0,10,3,0.2356520699995599,1,0,DAN,post,4,2,7
D_EMO,0,11,3,0.18229727799916873,1,0,DAN,post,4,2,7
D_EMO,0,12,3,0.21390712999982497,0,1,DAN,post,4,2,7
D_EMO,0,13,3,0.25727264800025296,1,0,DAN,post,4,2,7
D_EMO,0,14,3,0.3609842400001071,1,1,DAN,post,4,2,7
D_EMO,0,15,3,0.24317955399965285,1,0,DAN,post,4,2,7
D_EMO,0,16,3,0.2972202279997873,1,1,DAN,post,4,2,7
D_EMO,0,17,3,0.2513633579992529,1,0,DAN,post,4,2,7
D_EMO,0,18,3,0.24742280800001026,0,1,DAN,post,4,2,7
D_EMO,0,1,4,0.27194194000003336,1,0,DAN,post,4,2,7
D_EMO,0,2,4,0.2854871749996164,1,0,DAN,post,4,2,7
D_EMO,0,3,4,0.2657065920002424,1,0,DAN,post,4,2,7
D_EMO,0,4,4,0.3679811599995446,1,0,DAN,post,4,2,7
D_EMO,0,5,4,0.28105367299940553,0,1,DAN,post,4,2,7
D_EMO,0,6,4,0.2723988259995167,1,0,DAN,post,4,2,7
D_EMO,0,7,4,0.4193236280007113,1,1,DAN,post,4,2,7
D_EMO,0,8,4,0.2618127040004765,1,0,DAN,post,4,2,7
D_EMO,0,9,4,0.30840391399942746,1,0,DAN,post,4,2,7
D_EMO,0,10,4,0.31123637200016674,1,0,DAN,post,4,2,7
D_EMO,0,11,4,0.3016899940002986,1,0,DAN,post,4,2,7
D_EMO,0,12,4,0.3363443799999004,1,1,DAN,post,4,2,7
D_EMO,0,13,4,0.2803272820001439,1,0,DAN,post,4,2,7
D_EMO,0,14,4,0.3588550079994093,1,1,DAN,post,4,2,7
D_EMO,0,15,4,0.23021663799954695,1,0,DAN,post,4,2,7
D_EMO,0,16,4,0.3458574280002722,1,1,DAN,post,4,2,7
D_EMO,0,17,4,0.24443286599944258,1,0,DAN,post,4,2,7
D_EMO,0,18,4,0.4221747339997819,1,1,DAN,post,4,2,7
D_EMO,1,1,1,0.33770487399942795,1,0,DAN,post,4,2,7
D_EMO,1,2,1,0.3198296749997098,1,0,DAN,post,4,2,7
D_EMO,1,3,1,0.3276606100007484,1,1,DAN,post,4,2,7
D_EMO,1,4,1,0.26395274000060454,1,0,DAN,post,4,2,7
D_EMO,1,5,1,0.3088529679998828,1,1,DAN,post,4,2,7
D_EMO,1,6,1,0.3195678060001228,1,0,DAN,post,4,2,7
D_EMO,1,7,1,0.34432710999953997,1,0,DAN,post,4,2,7
D_EMO,1,8,1,0.4062909439999203,0,1,DAN,post,4,2,7
D_EMO,1,9,1,0.4088746750003338,1,0,DAN,post,4,2,7
D_EMO,1,10,1,0.6363082839998242,1,0,DAN,post,4,2,7
D_EMO,1,11,1,0.3939743400005682,1,1,DAN,post,4,2,7
D_EMO,1,12,1,0.5127930320004452,1,0,DAN,post,4,2,7
D_EMO,1,13,1,0.47910855999998603,1,0,DAN,post,4,2,7
D_EMO,1,14,1,0.296136793000187,1,1,DAN,post,4,2,7
D_EMO,1,15,1,0.3061028260008243,1,0,DAN,post,4,2,7
D_EMO,1,16,1,0.4141745799997807,1,1,DAN,post,4,2,7
D_EMO,1,17,1,0.5924350479999703,1,0,DAN,post,4,2,7
D_EMO,1,18,1,0.4209556599998905,1,0,DAN,post,4,2,7
D_EMO,1,1,2,0.24505279700042593,1,0,DAN,post,4,2,7
D_EMO,1,2,2,0.2916143269994791,0,1,DAN,post,4,2,7
D_EMO,1,3,2,0.3854215729998032,1,0,DAN,post,4,2,7
D_EMO,1,4,2,0.3600002940002014,1,0,DAN,post,4,2,7
D_EMO,1,5,2,0.38476306600023236,1,0,DAN,post,4,2,7
D_EMO,1,6,2,0.5752988639997056,1,1,DAN,post,4,2,7
D_EMO,1,7,2,0.34319957200023055,1,0,DAN,post,4,2,7
D_EMO,1,8,2,0.3568281289999504,1,0,DAN,post,4,2,7
D_EMO,1,9,2,0.6840365150001162,0,1,DAN,post,4,2,7
D_EMO,1,10,2,0.5681652869998288,1,0,DAN,post,4,2,7
D_EMO,1,11,2,0.3798917750000328,1,1,DAN,post,4,2,7
D_EMO,1,12,2,0.5365072169997802,1,0,DAN,post,4,2,7
D_EMO,1,13,2,0.33794555999975273,1,0,DAN,post,4,2,7
D_EMO,1,14,2,0.42648078500042175,0,0,DAN,post,4,2,7
D_EMO,1,15,2,0.43227382300028694,1,0,DAN,post,4,2,7
D_EMO,1,16,2,0.29948073600007774,1,1,DAN,post,4,2,7
D_EMO,1,17,2,0.4563739749992237,1,0,DAN,post,4,2,7
D_EMO,1,18,2,0.41724047500065353,1,1,DAN,post,4,2,7
D_EMO,1,1,3,0.8990502980004749,1,0,DAN,post,4,2,7
D_EMO,1,2,3,0.38436286400065,1,0,DAN,post,4,2,7
D_EMO,1,3,3,0.46560622600009083,0,1,DAN,post,4,2,7
D_EMO,1,4,3,0.7440782699995907,1,0,DAN,post,4,2,7
D_EMO,1,5,3,0.41057947800072725,1,1,DAN,post,4,2,7
D_EMO,1,6,3,0.34109222999995836,1,0,DAN,post,4,2,7
D_EMO,1,7,3,0.4277820299994346,1,1,DAN,post,4,2,7
D_EMO,1,8,3,0.30950116899930435,1,0,DAN,post,4,2,7
D_EMO,1,9,3,0.3243195029999697,1,0,DAN,post,4,2,7
D_EMO,1,10,3,0.38216638599988073,1,0,DAN,post,4,2,7
D_EMO,1,11,3,0.34076246000040555,1,1,DAN,post,4,2,7
D_EMO,1,12,3,0.5486776500001724,1,0,DAN,post,4,2,7
D_EMO,1,13,3,0.34828314000060345,1,0,DAN,post,4,2,7
D_EMO,1,14,3,0.42165460899923346,0,1,DAN,post,4,2,7
D_EMO,1,15,3,0.4878403000002436,1,0,DAN,post,4,2,7
D_EMO,1,16,3,0.3932909120003387,1,0,DAN,post,4,2,7
D_EMO,1,17,3,0.33907326999997167,1,0,DAN,post,4,2,7
D_EMO,1,18,3,0.432004870000128,1,1,DAN,post,4,2,7
D_EMO,1,1,4,0.6798774019998746,1,0,DAN,post,4,2,7
D_EMO,1,2,4,0.34340527699987433,0,1,DAN,post,4,2,7
D_EMO,1,3,4,0.3651482429995667,1,0,DAN,post,4,2,7
D_EMO,1,4,4,0.32783446200028266,1,0,DAN,post,4,2,7
D_EMO,1,5,4,0.4444587899997714,1,1,DAN,post,4,2,7
D_EMO,1,6,4,0.3263193519997003,1,0,DAN,post,4,2,7
D_EMO,1,7,4,0.45368996700017306,1,1,DAN,post,4,2,7
D_EMO,1,8,4,0.4736780990006082,1,0,DAN,post,4,2,7
D_EMO,1,9,4,0.4950288520003596,1,0,DAN,post,4,2,7
D_EMO,1,10,4,0.45619066300059785,1,1,DAN,post,4,2,7
D_EMO,1,11,4,0.407521390000511,1,0,DAN,post,4,2,7
D_EMO,1,12,4,0.30530736400032765,1,1,DAN,post,4,2,7
D_EMO,1,13,4,0.2608484980000867,1,0,DAN,post,4,2,7
D_EMO,1,14,4,0.38953674399999727,1,0,DAN,post,4,2,7
D_EMO,1,15,4,0.46006408500034013,0,0,DAN,post,4,2,7
D_EMO,1,16,4,0.46375524700033566,1,0,DAN,post,4,2,7
D_EMO,1,17,4,0.4802722480008015,1,0,DAN,post,4,2,7
D_EMO,1,18,4,0.2630266800006211,1,1,DAN,post,4,2,7
D_EMO,2,1,1,0.24808829399989918,1,0,DAN,post,4,2,7
D_EMO,2,2,1,0.2750091699999757,1,0,DAN,post,4,2,7
D_EMO,2,3,1,0.3384395160001077,0,1,DAN,post,4,2,7
D_EMO,2,4,1,0.5279516720001993,1,0,DAN,post,4,2,7
D_EMO,2,5,1,0.48189412000010634,1,1,DAN,post,4,2,7
D_EMO,2,6,1,0.6164104869994844,1,0,DAN,post,4,2,7
D_EMO,2,7,1,0.4228450159998829,0,0,DAN,post,4,2,7
D_EMO,2,8,1,0.49048197499996604,0,1,DAN,post,4,2,7
D_EMO,2,9,1,0.642217855999661,1,0,DAN,post,4,2,7
D_EMO,2,10,1,0.6709574659998907,1,0,DAN,post,4,2,7
D_EMO,2,11,1,0.583508200000324,1,1,DAN,post,4,2,7
D_EMO,2,12,1,0.8564395919993331,1,0,DAN,post,4,2,7
D_EMO,2,13,1,0.3317301449997103,1,1,DAN,post,4,2,7
D_EMO,2,14,1,0.47039225500066095,1,0,DAN,post,4,2,7
D_EMO,2,15,1,0.491853724000066,1,0,DAN,post,4,2,7
D_EMO,2,16,1,0.9408596670000406,1,0,DAN,post,4,2,7
D_EMO,2,17,1,0.6734084569998231,1,0,DAN,post,4,2,7
D_EMO,2,18,1,0.6681165089994465,1,1,DAN,post,4,2,7
D_EMO,2,1,2,0.27979311700073595,1,0,DAN,post,4,2,7
D_EMO,2,2,2,0.4182342180001797,1,0,DAN,post,4,2,7
D_EMO,2,3,2,0.5981575360001443,1,0,DAN,post,4,2,7
D_EMO,2,4,2,0.6935228500005906,1,1,DAN,post,4,2,7
D_EMO,2,5,2,0.5592637110003125,1,0,DAN,post,4,2,7
D_EMO,2,6,2,0.48582216599970707,1,0,DAN,post,4,2,7
D_EMO,2,7,2,0.3539659019997998,1,1,DAN,post,4,2,7
D_EMO,2,8,2,0.6784113650001018,1,0,DAN,post,4,2,7
D_EMO,2,9,2,0.7409514400005719,1,0,DAN,post,4,2,7
D_EMO,2,10,2,0.6827593870002602,1,1,DAN,post,4,2,7
D_EMO,2,11,2,0.5603392100001656,1,0,DAN,post,4,2,7
D_EMO,2,12,2,0.6220917479995478,1,1,DAN,post,4,2,7
D_EMO,2,13,2,0.6460628750000978,1,0,DAN,post,4,2,7
D_EMO,2,14,2,0.8272748570007025,1,1,DAN,post,4,2,7
D_EMO,2,15,2,0.583062771999721,1,0,DAN,post,4,2,7
D_EMO,2,16,2,0.5605941200001325,1,0,DAN,post,4,2,7
D_EMO,2,17,2,0.5677298400005384,1,0,DAN,post,4,2,7
D_EMO,2,18,2,0.9328706670003157,1,1,DAN,post,4,2,7
D_EMO,2,1,3,0.7860713190002571,1,0,DAN,post,4,2,7
D_EMO,2,2,3,0.6538840640005219,1,0,DAN,post,4,2,7
D_EMO,2,3,3,0.3735791250001057,1,1,DAN,post,4,2,7
D_EMO,2,4,3,0.5222201460001088,1,0,DAN,post,4,2,7
D_EMO,2,5,3,0.3358083559996885,1,0,DAN,post,4,2,7
D_EMO,2,6,3,0.4085752279997905,0,1,DAN,post,4,2,7
D_EMO,2,7,3,0.46626422200006346,1,0,DAN,post,4,2,7
D_EMO,2,8,3,0.47594524800024374,1,1,DAN,post,4,2,7
D_EMO,2,9,3,0.3065306469998177,1,0,DAN,post,4,2,7
D_EMO,2,10,3,0.3531644000004235,1,0,DAN,post,4,2,7
D_EMO,2,11,3,0.29780154900072375,1,1,DAN,post,4,2,7
D_EMO,2,12,3,0.31362484999954177,1,0,DAN,post,4,2,7
D_EMO,2,13,3,0.3849939000001541,1,0,DAN,post,4,2,7
D_EMO,2,14,3,0.42679582399978244,1,0,DAN,post,4,2,7
D_EMO,2,15,3,0.5510425399997985,1,1,DAN,post,4,2,7
D_EMO,2,16,3,0.3499494469997444,1,0,DAN,post,4,2,7
D_EMO,2,17,3,0.47870737399989594,1,0,DAN,post,4,2,7
D_EMO,2,18,3,0.424406848000217,1,1,DAN,post,4,2,7
D_EMO,2,1,4,0.41105644999970536,1,0,DAN,post,4,2,7
D_EMO,2,2,4,0.30492554800002836,1,0,DAN,post,4,2,7
D_EMO,2,3,4,0.40586876999987,1,0,DAN,post,4,2,7
D_EMO,2,4,4,0.5883742220003114,1,1,DAN,post,4,2,7
D_EMO,2,5,4,0.4058428680000361,1,0,DAN,post,4,2,7
D_EMO,2,6,4,0.44965450600011536,1,0,DAN,post,4,2,7
D_EMO,2,7,4,0.6233777820007163,1,1,DAN,post,4,2,7
D_EMO,2,8,4,0.5982255700000678,1,0,DAN,post,4,2,7
D_EMO,2,9,4,0.5706595430001471,1,0,DAN,post,4,2,7
D_EMO,2,10,4,0.6211414910003441,1,1,DAN,post,4,2,7
D_EMO,2,11,4,0.472768368999823,1,0,DAN,post,4,2,7
D_EMO,2,12,4,0.5087318400001095,1,1,DAN,post,4,2,7
D_EMO,2,13,4,0.5908006230001774,1,0,DAN,post,4,2,7
D_EMO,2,14,4,0.6347724449997258,1,0,DAN,post,4,2,7
D_EMO,2,15,4,0.5430047379995813,1,1,DAN,post,4,2,7
D_EMO,2,16,4,0.8730296960002306,0,0,DAN,post,4,2,7
D_EMO,2,17,4,0.40655387500009965,1,0,DAN,post,4,2,7
D_EMO,2,18,4,0.48722922900014964,1,1,DAN,post,4,2,7
D_EMO,0,1,1,0.5344954699999107,1,1,FPCNB,pre,6,3,14
D_EMO,0,2,1,0.29500123999991956,1,0,FPCNB,pre,6,3,14
D_EMO,0,3,1,0.33810549000008905,1,1,FPCNB,pre,6,3,14
D_EMO,0,4,1,0.27991088500016303,1,0,FPCNB,pre,6,3,14
D_EMO,0,5,1,0.2952430870000171,1,0,FPCNB,pre,6,3,14
D_EMO,0,6,1,0.3690123940000376,1,1,FPCNB,pre,6,3,14
D_EMO,0,7,1,0.2675922740002079,1,0,FPCNB,pre,6,3,14
D_EMO,0,8,1,0.3462934359999963,1,0,FPCNB,pre,6,3,14
D_EMO,0,9,1,0.35605996999993295,1,1,FPCNB,pre,6,3,14
D_EMO,0,10,1,0.2433300740001414,1,0,FPCNB,pre,6,3,14
D_EMO,0,11,1,0.33225362200005293,1,0,FPCNB,pre,6,3,14
D_EMO,0,12,1,0.27306024299991805,1,0,FPCNB,pre,6,3,14
D_EMO,0,13,1,0.2519147600000906,1,0,FPCNB,pre,6,3,14
D_EMO,0,14,1,0.30225552199999584,1,0,FPCNB,pre,6,3,14
D_EMO,0,15,1,0.27871315399988816,1,0,FPCNB,pre,6,3,14
D_EMO,0,16,1,0.29648109799995837,1,1,FPCNB,pre,6,3,14
D_EMO,0,17,1,0.19797793699990507,1,0,FPCNB,pre,6,3,14
D_EMO,0,18,1,0.3186756349998632,1,1,FPCNB,pre,6,3,14
D_EMO,0,1,2,0.41822958800003107,1,1,FPCNB,pre,6,3,14
D_EMO,0,2,2,0.23809672099991985,1,0,FPCNB,pre,6,3,14
D_EMO,0,3,2,0.2787402920000659,1,1,FPCNB,pre,6,3,14
D_EMO,0,4,2,0.27245502799996757,1,0,FPCNB,pre,6,3,14
D_EMO,0,5,2,0.2448853829998825,1,0,FPCNB,pre,6,3,14
D_EMO,0,6,2,0.3674717179999334,1,1,FPCNB,pre,6,3,14
D_EMO,0,7,2,0.24594888199999332,1,0,FPCNB,pre,6,3,14
D_EMO,0,8,2,0.28488231400001496,1,0,FPCNB,pre,6,3,14
D_EMO,0,9,2,0.2887399669998558,1,1,FPCNB,pre,6,3,14
D_EMO,0,10,2,0.25710601499986296,1,0,FPCNB,pre,6,3,14
D_EMO,0,11,2,0.3029582809999738,1,0,FPCNB,pre,6,3,14
D_EMO,0,12,2,0.27819308399989495,1,0,FPCNB,pre,6,3,14
D_EMO,0,13,2,0.28334643000016513,1,0,FPCNB,pre,6,3,14
D_EMO,0,14,2,0.33023838500002967,1,0,FPCNB,pre,6,3,14
D_EMO,0,15,2,0.25038734000008844,1,0,FPCNB,pre,6,3,14
D_EMO,0,16,2,0.32903708999992887,1,1,FPCNB,pre,6,3,14
D_EMO,0,17,2,0.2413430569999946,1,0,FPCNB,pre,6,3,14
D_EMO,0,18,2,0.36022683300006975,1,1,FPCNB,pre,6,3,14
D_EMO,0,1,3,0.4407954579999114,1,1,FPCNB,pre,6,3,14
D_EMO,0,2,3,0.26699230000008356,1,0,FPCNB,pre,6,3,14
D_EMO,0,3,3,0.44261452000000645,1,1,FPCNB,pre,6,3,14
D_EMO,0,4,3,0.2563479380000899,1,0,FPCNB,pre,6,3,14
D_EMO,0,5,3,0.2802521539999816,0,0,FPCNB,pre,6,3,14
D_EMO,0,6,3,0.34349888700012343,1,1,FPCNB,pre,6,3,14
D_EMO,0,7,3,0.2681142369999634,1,0,FPCNB,pre,6,3,14
D_EMO,0,8,3,0.2785240570001406,1,0,FPCNB,pre,6,3,14
D_EMO,0,9,3,0.357647304000011,1,1,FPCNB,pre,6,3,14
D_EMO,0,10,3,0.279505552000046,1,0,FPCNB,pre,6,3,14
D_EMO,0,11,3,0.2859516749999784,1,0,FPCNB,pre,6,3,14
D_EMO,0,12,3,0.33845253599997704,1,0,FPCNB,pre,6,3,14
D_EMO,0,13,3,0.2594031400001313,1,0,FPCNB,pre,6,3,14
D_EMO,0,14,3,0.336067716000116,1,0,FPCNB,pre,6,3,14
D_EMO,0,15,3,0.31463189500004773,1,0,FPCNB,pre,6,3,14
D_EMO,0,16,3,0.3451009170000816,1,1,FPCNB,pre,6,3,14
D_EMO,0,17,3,0.2618244479999703,1,0,FPCNB,pre,6,3,14
D_EMO,0,18,3,0.35028344600004857,1,1,FPCNB,pre,6,3,14
D_EMO,0,1,4,0.4836763969999538,1,1,FPCNB,pre,6,3,14
D_EMO,0,2,4,0.3087433800001236,1,0,FPCNB,pre,6,3,14
D_EMO,0,3,4,0.3153641849999076,1,1,FPCNB,pre,6,3,14
D_EMO,0,4,4,0.2559927820000212,1,0,FPCNB,pre,6,3,14
D_EMO,0,5,4,0.3047178269998767,1,0,FPCNB,pre,6,3,14
D_EMO,0,6,4,0.3614043130000937,1,1,FPCNB,pre,6,3,14
D_EMO,0,7,4,0.3028265499999634,1,0,FPCNB,pre,6,3,14
D_EMO,0,8,4,0.3318264659999386,1,0,FPCNB,pre,6,3,14
D_EMO,0,9,4,0.3655084849999639,1,1,FPCNB,pre,6,3,14
D_EMO,0,10,4,0.2760546100000738,1,0,FPCNB,pre,6,3,14
D_EMO,0,11,4,0.2911611880001601,1,0,FPCNB,pre,6,3,14
D_EMO,0,12,4,0.3153384479999204,1,0,FPCNB,pre,6,3,14
D_EMO,0,13,4,0.2764727919998222,1,0,FPCNB,pre,6,3,14
D_EMO,0,14,4,0.2645940840000094,1,0,FPCNB,pre,6,3,14
D_EMO,0,15,4,0.35097073199995066,1,0,FPCNB,pre,6,3,14
D_EMO,0,16,4,0.24387048900007358,0,1,FPCNB,pre,6,3,14
D_EMO,0,17,4,0.3602519759999723,1,0,FPCNB,pre,6,3,14
D_EMO,0,18,4,0.3041054020000047,1,1,FPCNB,pre,6,3,14
D_EMO,1,1,1,0.2361383500001466,1,0,FPCNB,pre,6,3,14
D_EMO,1,2,1,0.3507986240001628,1,1,FPCNB,pre,6,3,14
D_EMO,1,3,1,0.264755814000182,1,0,FPCNB,pre,6,3,14
D_EMO,1,4,1,0.32108608999988064,1,0,FPCNB,pre,6,3,14
D_EMO,1,5,1,0.28201175799995326,1,1,FPCNB,pre,6,3,14
D_EMO,1,6,1,0.3295548000000963,1,0,FPCNB,pre,6,3,14
D_EMO,1,7,1,0.3262061860000358,1,1,FPCNB,pre,6,3,14
D_EMO,1,8,1,0.31697895799970865,1,0,FPCNB,pre,6,3,14
D_EMO,1,9,1,0.3765428320002684,1,0,FPCNB,pre,6,3,14
D_EMO,1,10,1,0.26521586800026853,1,1,FPCNB,pre,6,3,14
D_EMO,1,11,1,0.27487721200031956,1,0,FPCNB,pre,6,3,14
D_EMO,1,12,1,0.33651620999989973,1,1,FPCNB,pre,6,3,14
D_EMO,1,13,1,0.4090775620002205,1,0,FPCNB,pre,6,3,14
D_EMO,1,14,1,0.4397648049998679,1,0,FPCNB,pre,6,3,14
D_EMO,1,15,1,0.49911460399971475,1,0,FPCNB,pre,6,3,14
D_EMO,1,16,1,0.4170132880003621,1,0,FPCNB,pre,6,3,14
D_EMO,1,17,1,0.4304226680001193,0,0,FPCNB,pre,6,3,14
D_EMO,1,18,1,0.4170740729996396,1,1,FPCNB,pre,6,3,14
D_EMO,1,1,2,0.23374674000024243,1,0,FPCNB,pre,6,3,14
D_EMO,1,2,2,0.3284087030001501,1,0,FPCNB,pre,6,3,14
D_EMO,1,3,2,0.4140668549998736,1,1,FPCNB,pre,6,3,14
D_EMO,1,4,2,0.30379071599963936,1,0,FPCNB,pre,6,3,14
D_EMO,1,5,2,0.3236246280002888,1,1,FPCNB,pre,6,3,14
D_EMO,1,6,2,0.2860248499996487,1,0,FPCNB,pre,6,3,14
D_EMO,1,7,2,0.2830978229999346,1,1,FPCNB,pre,6,3,14
D_EMO,1,8,2,0.3616029800000433,1,0,FPCNB,pre,6,3,14
D_EMO,1,9,2,0.4443918039996788,1,0,FPCNB,pre,6,3,14
D_EMO,1,10,2,0.3857946759999322,1,0,FPCNB,pre,6,3,14
D_EMO,1,11,2,0.37276858299992455,0,1,FPCNB,pre,6,3,14
D_EMO,1,12,2,0.4860642649996407,1,0,FPCNB,pre,6,3,14
D_EMO,1,13,2,0.7227702300001511,1,0,FPCNB,pre,6,3,14
D_EMO,1,14,2,0.3863730560001386,1,1,FPCNB,pre,6,3,14
D_EMO,1,15,2,0.38380471299979035,1,0,FPCNB,pre,6,3,14
D_EMO,1,16,2,0.2736964599998828,1,0,FPCNB,pre,6,3,14
D_EMO,1,17,2,0.3411831500002336,1,0,FPCNB,pre,6,3,14
D_EMO,1,18,2,0.3629225800000313,0,1,FPCNB,pre,6,3,14
D_EMO,1,1,3,0.2471319940000285,1,0,FPCNB,pre,6,3,14
D_EMO,1,2,3,0.27856867399987095,1,1,FPCNB,pre,6,3,14
D_EMO,1,3,3,0.3783331360000375,1,0,FPCNB,pre,6,3,14
D_EMO,1,4,3,0.3342252180000287,1,0,FPCNB,pre,6,3,14
D_EMO,1,5,3,0.3864849100000356,0,0,FPCNB,pre,6,3,14
D_EMO,1,6,3,1.1212293800003863,1,1,FPCNB,pre,6,3,14
D_EMO,1,7,3,0.7175744200003464,1,0,FPCNB,pre,6,3,14
D_EMO,1,8,3,0.8116197129998,1,0,FPCNB,pre,6,3,14
D_EMO,1,9,3,0.4893322520001675,1,1,FPCNB,pre,6,3,14
D_EMO,1,10,3,0.33894998300002044,1,0,FPCNB,pre,6,3,14
D_EMO,1,11,3,0.2875539229999049,1,1,FPCNB,pre,6,3,14
D_EMO,1,12,3,0.36329595999995945,1,0,FPCNB,pre,6,3,14
D_EMO,1,13,3,0.3803648250000151,1,0,FPCNB,pre,6,3,14
D_EMO,1,14,3,0.32426767700007986,1,0,FPCNB,pre,6,3,14
D_EMO,1,15,3,0.261899652000011,1,0,FPCNB,pre,6,3,14
D_EMO,1,16,3,0.4673540740000135,1,1,FPCNB,pre,6,3,14
D_EMO,1,17,3,0.4643253360000017,1,0,FPCNB,pre,6,3,14
D_EMO,1,18,3,0.4537053519998153,1,1,FPCNB,pre,6,3,14
D_EMO,1,1,4,0.5852589800001624,1,0,FPCNB,pre,6,3,14
D_EMO,1,2,4,0.5097768549999273,1,0,FPCNB,pre,6,3,14
D_EMO,1,3,4,0.42580648199964344,1,1,FPCNB,pre,6,3,14
D_EMO,1,4,4,0.36651226200001474,1,0,FPCNB,pre,6,3,14
D_EMO,1,5,4,0.6701101540002128,1,1,FPCNB,pre,6,3,14
D_EMO,1,6,4,0.42785493199971825,1,0,FPCNB,pre,6,3,14
D_EMO,1,7,4,0.3843198980002853,1,0,FPCNB,pre,6,3,14
D_EMO,1,8,4,0.36804371400012315,1,1,FPCNB,pre,6,3,14
D_EMO,1,9,4,0.26505177000035474,1,0,FPCNB,pre,6,3,14
D_EMO,1,10,4,0.33742209300044124,1,0,FPCNB,pre,6,3,14
D_EMO,1,11,4,0.33606511800007866,1,1,FPCNB,pre,6,3,14
D_EMO,1,12,4,0.26972457900001245,1,0,FPCNB,pre,6,3,14
D_EMO,1,13,4,0.3538731850003387,1,0,FPCNB,pre,6,3,14
D_EMO,1,14,4,0.3153300379999564,1,1,FPCNB,pre,6,3,14
D_EMO,1,15,4,0.36537183499967796,1,0,FPCNB,pre,6,3,14
D_EMO,1,16,4,0.4391247480002676,1,1,FPCNB,pre,6,3,14
D_EMO,1,17,4,0.4898490780001339,1,0,FPCNB,pre,6,3,14
D_EMO,1,18,4,0.370523411999784,1,0,FPCNB,pre,6,3,14
D_EMO,2,1,1,0.24704253199979576,1,0,FPCNB,pre,6,3,14
D_EMO,2,2,1,0.28429212999981246,1,0,FPCNB,pre,6,3,14
D_EMO,2,3,1,0.3292671600001995,1,0,FPCNB,pre,6,3,14
D_EMO,2,4,1,0.340746962999674,1,1,FPCNB,pre,6,3,14
D_EMO,2,5,1,0.29129740799999126,1,0,FPCNB,pre,6,3,14
D_EMO,2,6,1,0.4472901499998443,1,0,FPCNB,pre,6,3,14
D_EMO,2,7,1,0.4334681680002177,0,1,FPCNB,pre,6,3,14
D_EMO,2,8,1,0.4918069679997643,1,0,FPCNB,pre,6,3,14
D_EMO,2,9,1,0.6415469129997291,1,0,FPCNB,pre,6,3,14
D_EMO,2,10,1,0.2713354510001409,1,1,FPCNB,pre,6,3,14
D_EMO,2,11,1,0.5249102969996784,1,0,FPCNB,pre,6,3,14
D_EMO,2,12,1,0.5174365379998562,1,1,FPCNB,pre,6,3,14
D_EMO,2,13,1,0.576422784999977,1,0,FPCNB,pre,6,3,14
D_EMO,2,14,1,0.4800746370001434,1,0,FPCNB,pre,6,3,14
D_EMO,2,15,1,0.35324574900005246,0,1,FPCNB,pre,6,3,14
D_EMO,2,16,1,0.38102766000019983,1,0,FPCNB,pre,6,3,14
D_EMO,2,17,1,0.6425243849998878,1,0,FPCNB,pre,6,3,14
D_EMO,2,18,1,0.4433817120002459,1,1,FPCNB,pre,6,3,14
D_EMO,2,1,2,0.24181485200006136,1,0,FPCNB,pre,6,3,14
D_EMO,2,2,2,0.28739311700019243,1,0,FPCNB,pre,6,3,14
D_EMO,2,3,2,0.44734211900004084,1,1,FPCNB,pre,6,3,14
D_EMO,2,4,2,0.3933910270002343,1,0,FPCNB,pre,6,3,14
D_EMO,2,5,2,0.3815859999999702,1,0,FPCNB,pre,6,3,14
D_EMO,2,6,2,0.3371782730000632,1,1,FPCNB,pre,6,3,14
D_EMO,2,7,2,0.3676849050002602,1,0,FPCNB,pre,6,3,14
D_EMO,2,8,2,0.5957972500000324,1,1,FPCNB,pre,6,3,14
D_EMO,2,9,2,0.5921544359998734,1,0,FPCNB,pre,6,3,14
D_EMO,2,10,2,0.7479091699997298,1,0,FPCNB,pre,6,3,14
D_EMO,2,11,2,0.5054667249996783,1,1,FPCNB,pre,6,3,14
D_EMO,2,12,2,0.9198981200001981,1,0,FPCNB,pre,6,3,14
D_EMO,2,13,2,0.7046866280002178,0,0,FPCNB,pre,6,3,14
D_EMO,2,14,2,0.6544015309996212,1,0,FPCNB,pre,6,3,14
D_EMO,2,15,2,0.29890885200029516,1,1,FPCNB,pre,6,3,14
D_EMO,2,16,2,0.30428626100001566,1,0,FPCNB,pre,6,3,14
D_EMO,2,17,2,0.41333066800007146,1,0,FPCNB,pre,6,3,14
D_EMO,2,18,2,0.3437492520001797,1,1,FPCNB,pre,6,3,14
D_EMO,2,1,3,0.4123531769996589,1,0,FPCNB,pre,6,3,14
D_EMO,2,2,3,0.33602822400007426,1,0,FPCNB,pre,6,3,14
D_EMO,2,3,3,0.40368927400004395,1,0,FPCNB,pre,6,3,14
D_EMO,2,4,3,0.6213181799998893,1,1,FPCNB,pre,6,3,14
D_EMO,2,5,3,0.4960609520003345,1,0,FPCNB,pre,6,3,14
D_EMO,2,6,3,0.6027167350002856,1,0,FPCNB,pre,6,3,14
D_EMO,2,7,3,0.5003630740002336,1,1,FPCNB,pre,6,3,14
D_EMO,2,8,3,0.3290447499998663,1,0,FPCNB,pre,6,3,14
D_EMO,2,9,3,0.4458336950001467,1,0,FPCNB,pre,6,3,14
D_EMO,2,10,3,0.468721094999637,1,1,FPCNB,pre,6,3,14
D_EMO,2,11,3,0.3988217959999929,1,0,FPCNB,pre,6,3,14
D_EMO,2,12,3,0.45921691700004885,1,1,FPCNB,pre,6,3,14
D_EMO,2,13,3,0.5831326829998034,1,0,FPCNB,pre,6,3,14
D_EMO,2,14,3,0.8229344450001008,0,1,FPCNB,pre,6,3,14
D_EMO,2,15,3,0.6802817880002294,0,0,FPCNB,pre,6,3,14
D_EMO,2,16,3,0.43767929999967237,1,0,FPCNB,pre,6,3,14
D_EMO,2,17,3,0.45410007399959795,1,0,FPCNB,pre,6,3,14
D_EMO,2,18,3,0.397020146000159,1,1,FPCNB,pre,6,3,14
D_EMO,2,1,4,0.45887970900002983,1,0,FPCNB,pre,6,3,14
D_EMO,2,2,4,0.5933800170000723,1,0,FPCNB,pre,6,3,14
D_EMO,2,3,4,0.33500856399996337,1,1,FPCNB,pre,6,3,14
D_EMO,2,4,4,0.3512978819999262,1,0,FPCNB,pre,6,3,14
D_EMO,2,5,4,0.4513501419996828,0,1,FPCNB,pre,6,3,14
D_EMO,2,6,4,0.37109337899983075,1,0,FPCNB,pre,6,3,14
D_EMO,2,7,4,0.5009806670000216,1,0,FPCNB,pre,6,3,14
D_EMO,2,8,4,0.35449784100001125,1,1,FPCNB,pre,6,3,14
D_EMO,2,9,4,0.5292264979998436,1,0,FPCNB,pre,6,3,14
D_EMO,2,10,4,0.4037278770001649,1,0,FPCNB,pre,6,3,14
D_EMO,2,11,4,0.6083146380001381,1,1,FPCNB,pre,6,3,14
D_EMO,2,12,4,0.3902698780002538,1,0,FPCNB,pre,6,3,14
D_EMO,2,13,4,0.6515674440001931,1,1,FPCNB,pre,6,3,14
D_EMO,2,14,4,0.7284466040000552,1,0,FPCNB,pre,6,3,14
D_EMO,2,15,4,0.8106086450002294,1,0,FPCNB,pre,6,3,14
D_EMO,2,16,4,0.7055004669996379,1,0,FPCNB,pre,6,3,14
D_EMO,2,17,4,0.4850636759997542,1,0,FPCNB,pre,6,3,14
D_EMO,2,18,4,0.5006705499999953,1,1,FPCNB,pre,6,3,14
D_EMO,0,1,1,0.29309759799980384,1,0,FPCNB,post,2,3,14
D_EMO,0,2,1,0.3971120280002651,1,0,FPCNB,post,2,3,14
D_EMO,0,3,1,0.2497663780000039,1,0,FPCNB,post,2,3,14
D_EMO,0,4,1,0.3292097329999706,1,1,FPCNB,post,2,3,14
D_EMO,0,5,1,0.26463370999999825,1,0,FPCNB,post,2,3,14
D_EMO,0,6,1,0.2422276239999519,1,0,FPCNB,post,2,3,14
D_EMO,0,7,1,0.27701311700002407,1,0,FPCNB,post,2,3,14
D_EMO,0,8,1,0.25782705800020267,1,0,FPCNB,post,2,3,14
D_EMO,0,9,1,0.28649255900018034,1,1,FPCNB,post,2,3,14
D_EMO,0,10,1,0.30018145499980164,1,0,FPCNB,post,2,3,14
D_EMO,0,11,1,0.3619267949998175,1,1,FPCNB,post,2,3,14
D_EMO,0,12,1,0.23847790999980134,1,0,FPCNB,post,2,3,14
D_EMO,0,13,1,0.3369230579996838,1,1,FPCNB,post,2,3,14
D_EMO,0,14,1,0.2547562849999849,1,0,FPCNB,post,2,3,14
D_EMO,0,15,1,0.2857514100001026,1,1,FPCNB,post,2,3,14
D_EMO,0,16,1,0.23881776700000046,1,0,FPCNB,post,2,3,14
D_EMO,0,17,1,0.32737937399997463,1,1,FPCNB,post,2,3,14
D_EMO,0,18,1,0.22796399200024098,1,0,FPCNB,post,2,3,14
D_EMO,0,1,2,0.38112773700004254,1,0,FPCNB,post,2,3,14
D_EMO,0,2,2,0.22393904299997303,1,0,FPCNB,post,2,3,14
D_EMO,0,3,2,0.28267182400031743,1,0,FPCNB,post,2,3,14
D_EMO,0,4,2,0.26052577999962523,1,1,FPCNB,post,2,3,14
D_EMO,0,5,2,0.24381374399990818,1,0,FPCNB,post,2,3,14
D_EMO,0,6,2,0.2779371120000178,1,0,FPCNB,post,2,3,14
D_EMO,0,7,2,0.36525945200037313,1,0,FPCNB,post,2,3,14
D_EMO,0,8,2,0.3372160540002369,1,0,FPCNB,post,2,3,14
D_EMO,0,9,2,0.2635257929996442,1,1,FPCNB,post,2,3,14
D_EMO,0,10,2,0.32222833699961484,1,0,FPCNB,post,2,3,14
D_EMO,0,11,2,0.3097761429999082,0,1,FPCNB,post,2,3,14
D_EMO,0,12,2,0.34054854399983014,1,0,FPCNB,post,2,3,14
D_EMO,0,13,2,0.4538750900001105,1,1,FPCNB,post,2,3,14
D_EMO,0,14,2,0.2850566769998295,1,0,FPCNB,post,2,3,14
D_EMO,0,15,2,0.40986569799997596,1,1,FPCNB,post,2,3,14
D_EMO,0,16,2,0.28413042400006816,1,0,FPCNB,post,2,3,14
D_EMO,0,17,2,0.40992507300006764,1,1,FPCNB,post,2,3,14
D_EMO,0,18,2,0.2375509299999976,1,0,FPCNB,post,2,3,14
D_EMO,0,1,3,0.38608362800005125,1,0,FPCNB,post,2,3,14
D_EMO,0,2,3,0.2931078599999637,1,0,FPCNB,post,2,3,14
D_EMO,0,3,3,0.267543336000017,1,0,FPCNB,post,2,3,14
D_EMO,0,4,3,0.42530992199999673,1,1,FPCNB,post,2,3,14
D_EMO,0,5,3,0.30001576599988766,1,0,FPCNB,post,2,3,14
D_EMO,0,6,3,0.3105468799999471,1,0,FPCNB,post,2,3,14
D_EMO,0,7,3,0.28322639999987587,1,0,FPCNB,post,2,3,14
D_EMO,0,8,3,0.3150840420003078,1,0,FPCNB,post,2,3,14
D_EMO,0,9,3,0.324630986000102,0,1,FPCNB,post,2,3,14
D_EMO,0,10,3,0.2332385219997377,1,0,FPCNB,post,2,3,14
D_EMO,0,11,3,0.27603187800013984,1,1,FPCNB,post,2,3,14
D_EMO,0,12,3,0.23456440500012832,1,0,FPCNB,post,2,3,14
D_EMO,0,13,3,0.33711869699982344,1,1,FPCNB,post,2,3,14
D_EMO,0,14,3,0.2549868820001393,1,0,FPCNB,post,2,3,14
D_EMO,0,15,3,0.42140777700024046,1,1,FPCNB,post,2,3,14
D_EMO,0,16,3,0.290966649999973,1,0,FPCNB,post,2,3,14
D_EMO,0,17,3,0.3938846580003883,1,1,FPCNB,post,2,3,14
D_EMO,0,18,3,0.24428989200032447,1,0,FPCNB,post,2,3,14
D_EMO,0,1,4,0.29581826799994815,1,0,FPCNB,post,2,3,14
D_EMO,0,2,4,0.29668792099982966,1,0,FPCNB,post,2,3,14
D_EMO,0,3,4,0.2769757220003157,1,0,FPCNB,post,2,3,14
D_EMO,0,4,4,0.24892533499996716,1,1,FPCNB,post,2,3,14
D_EMO,0,5,4,0.2183105199997044,1,0,FPCNB,post,2,3,14
D_EMO,0,6,4,0.3269444970001132,1,0,FPCNB,post,2,3,14
D_EMO,0,7,4,0.2857059799998751,1,0,FPCNB,post,2,3,14
D_EMO,0,8,4,0.3252983510001286,1,0,FPCNB,post,2,3,14
D_EMO,0,9,4,0.313251147000301,1,1,FPCNB,post,2,3,14
D_EMO,0,10,4,0.2726852420000796,1,0,FPCNB,post,2,3,14
D_EMO,0,11,4,0.38829952100013543,1,1,FPCNB,post,2,3,14
D_EMO,0,12,4,0.293488162000358,1,0,FPCNB,post,2,3,14
D_EMO,0,13,4,0.43452155599970865,1,1,FPCNB,post,2,3,14
D_EMO,0,14,4,0.2853128149999975,1,0,FPCNB,post,2,3,14
D_EMO,0,15,4,0.36683709299995826,1,1,FPCNB,post,2,3,14
D_EMO,0,16,4,0.23434407800050394,1,0,FPCNB,post,2,3,14
D_EMO,0,17,4,0.3540882570005124,1,1,FPCNB,post,2,3,14
D_EMO,0,18,4,0.25176702499993553,1,0,FPCNB,post,2,3,14
D_EMO,1,1,1,0.38278060799984814,1,0,FPCNB,post,2,3,14
D_EMO,1,2,1,0.2902813900000183,1,0,FPCNB,post,2,3,14
D_EMO,1,3,1,0.29534614000021975,1,1,FPCNB,post,2,3,14
D_EMO,1,4,1,0.3069028919999255,1,0,FPCNB,post,2,3,14
D_EMO,1,5,1,0.3858470059994943,1,1,FPCNB,post,2,3,14
D_EMO,1,6,1,0.24979086399980588,1,0,FPCNB,post,2,3,14
D_EMO,1,7,1,0.3329649250008515,1,1,FPCNB,post,2,3,14
D_EMO,1,8,1,0.26742425999964325,1,0,FPCNB,post,2,3,14
D_EMO,1,9,1,0.4082049829994503,1,0,FPCNB,post,2,3,14
D_EMO,1,10,1,0.37362824200045,1,0,FPCNB,post,2,3,14
D_EMO,1,11,1,0.25256111999988207,1,1,FPCNB,post,2,3,14
D_EMO,1,12,1,0.31095610600004875,1,0,FPCNB,post,2,3,14
D_EMO,1,13,1,0.270168478999949,1,0,FPCNB,post,2,3,14
D_EMO,1,14,1,0.4683761890000824,0,1,FPCNB,post,2,3,14
D_EMO,1,15,1,0.3425966550003068,1,0,FPCNB,post,2,3,14
D_EMO,1,16,1,0.3569731919997139,1,0,FPCNB,post,2,3,14
D_EMO,1,17,1,0.4082814600005804,1,0,FPCNB,post,2,3,14
D_EMO,1,18,1,0.31519108199972834,0,1,FPCNB,post,2,3,14
D_EMO,1,1,2,0.30016068599979917,1,0,FPCNB,post,2,3,14
D_EMO,1,2,2,0.3223398609998185,1,1,FPCNB,post,2,3,14
D_EMO,1,3,2,0.3140632499998901,1,0,FPCNB,post,2,3,14
D_EMO,1,4,2,0.39293648000057146,1,0,FPCNB,post,2,3,14
D_EMO,1,5,2,0.3326822959998026,1,1,FPCNB,post,2,3,14
D_EMO,1,6,2,0.3014571799994883,1,0,FPCNB,post,2,3,14
D_EMO,1,7,2,0.3072554250002213,1,1,FPCNB,post,2,3,14
D_EMO,1,8,2,0.28793418500026746,1,0,FPCNB,post,2,3,14
D_EMO,1,9,2,0.32718022700009897,1,0,FPCNB,post,2,3,14
D_EMO,1,10,2,0.3963132900007622,1,1,FPCNB,post,2,3,14
D_EMO,1,11,2,0.3320124450001458,1,0,FPCNB,post,2,3,14
D_EMO,1,12,2,0.3632843019995562,1,1,FPCNB,post,2,3,14
D_EMO,1,13,2,0.33414195499972266,1,0,FPCNB,post,2,3,14
D_EMO,1,14,2,0.4378631520003182,1,0,FPCNB,post,2,3,14
D_EMO,1,15,2,0.33134147799955826,0,0,FPCNB,post,2,3,14
D_EMO,1,16,2,0.3449992319992816,1,0,FPCNB,post,2,3,14
D_EMO,1,17,2,0.704352614000527,1,0,FPCNB,post,2,3,14
D_EMO,1,18,2,0.2912821769996299,1,1,FPCNB,post,2,3,14
D_EMO,1,1,3,0.2071540869992532,1,0,FPCNB,post,2,3,14
D_EMO,1,2,3,0.31559258600009343,1,0,FPCNB,post,2,3,14
D_EMO,1,3,3,0.299596930000007,0,1,FPCNB,post,2,3,14
D_EMO,1,4,3,0.5167142020000028,1,0,FPCNB,post,2,3,14
D_EMO,1,5,3,0.2900308850003057,1,1,FPCNB,post,2,3,14
D_EMO,1,6,3,0.5864907450004466,1,0,FPCNB,post,2,3,14
D_EMO,1,7,3,0.3989356570000382,1,0,FPCNB,post,2,3,14
D_EMO,1,8,3,0.555012503999933,1,1,FPCNB,post,2,3,14
D_EMO,1,9,3,0.35365169600027,1,0,FPCNB,post,2,3,14
D_EMO,1,10,3,0.32328852000046027,1,0,FPCNB,post,2,3,14
D_EMO,1,11,3,0.4239899059994059,1,1,FPCNB,post,2,3,14
D_EMO,1,12,3,0.26363700999991124,1,0,FPCNB,post,2,3,14
D_EMO,1,13,3,0.2872435020008197,1,0,FPCNB,post,2,3,14
D_EMO,1,14,3,0.38569809999989957,1,1,FPCNB,post,2,3,14
D_EMO,1,15,3,0.2944164099999398,1,0,FPCNB,post,2,3,14
D_EMO,1,16,3,0.40767078699991544,1,1,FPCNB,post,2,3,14
D_EMO,1,17,3,0.26733201800016104,1,0,FPCNB,post,2,3,14
D_EMO,1,18,3,0.29820907399971475,1,0,FPCNB,post,2,3,14
D_EMO,1,1,4,0.6378614539999035,1,0,FPCNB,post,2,3,14
D_EMO,1,2,4,0.3156438860005437,1,1,FPCNB,post,2,3,14
D_EMO,1,3,4,0.3121457459992598,1,0,FPCNB,post,2,3,14
D_EMO,1,4,4,0.33983005300069635,1,0,FPCNB,post,2,3,14
D_EMO,1,5,4,0.38958736499989755,1,0,FPCNB,post,2,3,14
D_EMO,1,6,4,0.5601207019999492,0,1,FPCNB,post,2,3,14
D_EMO,1,7,4,0.5249881230001847,1,0,FPCNB,post,2,3,14
D_EMO,1,8,4,0.40550359099961497,1,0,FPCNB,post,2,3,14
D_EMO,1,9,4,0.32223778100069467,1,1,FPCNB,post,2,3,14
D_EMO,1,10,4,0.3675966239998161,1,0,FPCNB,post,2,3,14
D_EMO,1,11,4,0.46158264400037297,1,1,FPCNB,post,2,3,14
D_EMO,1,12,4,0.46805499300080555,1,0,FPCNB,post,2,3,14
D_EMO,1,13,4,0.33793511299973034,1,0,FPCNB,post,2,3,14
D_EMO,1,14,4,0.5996465600001102,1,0,FPCNB,post,2,3,14
D_EMO,1,15,4,0.3085156619999907,0,0,FPCNB,post,2,3,14
D_EMO,1,16,4,0.24444391799988807,0,1,FPCNB,post,2,3,14
D_EMO,1,17,4,0.40925818999949115,1,0,FPCNB,post,2,3,14
D_EMO,1,18,4,0.5357318220003435,1,1,FPCNB,post,2,3,14
D_EMO,2,1,1,0.25485948200002895,1,0,FPCNB,post,2,3,14
D_EMO,2,2,1,0.2276986440001565,1,0,FPCNB,post,2,3,14
D_EMO,2,3,1,0.4030184140001438,1,1,FPCNB,post,2,3,14
D_EMO,2,4,1,0.51221482299934,1,0,FPCNB,post,2,3,14
D_EMO,2,5,1,0.535786356999779,1,0,FPCNB,post,2,3,14
D_EMO,2,6,1,0.3078180020002037,1,1,FPCNB,post,2,3,14
D_EMO,2,7,1,0.3147629019995293,1,0,FPCNB,post,2,3,14
D_EMO,2,8,1,0.32386233499983064,1,1,FPCNB,post,2,3,14
D_EMO,2,9,1,0.680790860000343,1,0,FPCNB,post,2,3,14
D_EMO,2,10,1,0.6301184020003348,1,0,FPCNB,post,2,3,14
D_EMO,2,11,1,0.49985729299987725,1,1,FPCNB,post,2,3,14
D_EMO,2,12,1,0.5253028549996088,1,0,FPCNB,post,2,3,14
D_EMO,2,13,1,0.6768632650000654,1,0,FPCNB,post,2,3,14
D_EMO,2,14,1,0.6811735159999444,1,0,FPCNB,post,2,3,14
D_EMO,2,15,1,0.7501841220000642,1,1,FPCNB,post,2,3,14
D_EMO,2,16,1,0.8523678230003497,1,0,FPCNB,post,2,3,14
D_EMO,2,17,1,0.7555443000001105,1,0,FPCNB,post,2,3,14
D_EMO,2,18,1,0.5153183430002173,1,1,FPCNB,post,2,3,14
D_EMO,2,1,2,0.5072226299998874,1,0,FPCNB,post,2,3,14
D_EMO,2,2,2,0.5337400300004447,1,0,FPCNB,post,2,3,14
D_EMO,2,3,2,0.4543803120004668,1,0,FPCNB,post,2,3,14
D_EMO,2,4,2,0.7622402119995968,1,1,FPCNB,post,2,3,14
D_EMO,2,5,2,0.6739203570004975,1,0,FPCNB,post,2,3,14
D_EMO,2,6,2,0.4585576420004145,0,0,FPCNB,post,2,3,14
D_EMO,2,7,2,0.644920560999708,0,1,FPCNB,post,2,3,14
D_EMO,2,8,2,0.6339238459995613,1,0,FPCNB,post,2,3,14
D_EMO,2,9,2,0.5224974390002899,1,0,FPCNB,post,2,3,14
D_EMO,2,10,2,0.3179297699998642,1,1,FPCNB,post,2,3,14
D_EMO,2,11,2,0.5729273070001,1,0,FPCNB,post,2,3,14
D_EMO,2,12,2,0.9744163120003577,0,1,FPCNB,post,2,3,14
D_EMO,2,13,2,0.8931967919997987,0,0,FPCNB,post,2,3,14
D_EMO,2,14,2,0.764166132000355,1,0,FPCNB,post,2,3,14
D_EMO,2,15,2,1.0654039780001767,1,1,FPCNB,post,2,3,14
D_EMO,2,16,2,0.3990781259999494,1,0,FPCNB,post,2,3,14
D_EMO,2,17,2,0.5545793679993949,1,0,FPCNB,post,2,3,14
D_EMO,2,18,2,0.36350218699953984,1,1,FPCNB,post,2,3,14
D_EMO,2,1,3,0.19794316199931927,1,0,FPCNB,post,2,3,14
D_EMO,2,2,3,0.262560124000629,1,0,FPCNB,post,2,3,14
D_EMO,2,3,3,0.41904462200000125,1,1,FPCNB,post,2,3,14
D_EMO,2,4,3,0.44579685799999424,1,0,FPCNB,post,2,3,14
D_EMO,2,5,3,0.37715208499957953,1,1,FPCNB,post,2,3,14
D_EMO,2,6,3,0.5890457519999472,1,0,FPCNB,post,2,3,14
D_EMO,2,7,3,0.8897740699994756,1,0,FPCNB,post,2,3,14
D_EMO,2,8,3,0.7705265949998648,1,1,FPCNB,post,2,3,14
D_EMO,2,9,3,0.5711369420005212,1,0,FPCNB,post,2,3,14
D_EMO,2,10,3,0.4177053719995456,1,0,FPCNB,post,2,3,14
D_EMO,2,11,3,0.39208486799998354,1,1,FPCNB,post,2,3,14
D_EMO,2,12,3,0.42712304899941955,1,0,FPCNB,post,2,3,14
D_EMO,2,13,3,0.7907585229995675,1,1,FPCNB,post,2,3,14
D_EMO,2,14,3,0.8884010619995024,1,0,FPCNB,post,2,3,14
D_EMO,2,15,3,0.8890957000003255,1,0,FPCNB,post,2,3,14
D_EMO,2,16,3,0.704431762999775,1,0,FPCNB,post,2,3,14
D_EMO,2,17,3,0.5617350529992109,1,0,FPCNB,post,2,3,14
D_EMO,2,18,3,0.6968817320002927,1,1,FPCNB,post,2,3,14
D_EMO,2,1,4,0.4664918899998156,1,0,FPCNB,post,2,3,14
D_EMO,2,2,4,0.5544033859996489,1,0,FPCNB,post,2,3,14
D_EMO,2,3,4,0.37191002200052026,1,0,FPCNB,post,2,3,14
D_EMO,2,4,4,0.4376916169994729,1,1,FPCNB,post,2,3,14
D_EMO,2,5,4,0.36554624699965643,1,0,FPCNB,post,2,3,14
D_EMO,2,6,4,0.6008953180007666,1,0,FPCNB,post,2,3,14
D_EMO,2,7,4,0.28458884799965745,1,1,FPCNB,post,2,3,14
D_EMO,2,8,4,0.3587834349991681,1,0,FPCNB,post,2,3,14
D_EMO,2,9,4,0.4002721369997744,1,0,FPCNB,post,2,3,14
D_EMO,2,10,4,0.32304446899979666,1,1,FPCNB,post,2,3,14
D_EMO,2,11,4,0.40861062000021775,1,0,FPCNB,post,2,3,14
D_EMO,2,12,4,0.6643566799994005,1,1,FPCNB,post,2,3,14
D_EMO,2,13,4,0.5640260089994626,1,0,FPCNB,post,2,3,14
D_EMO,2,14,4,0.613087371999427,1,1,FPCNB,post,2,3,14
D_EMO,2,15,4,0.41453853999973944,1,0,FPCNB,post,2,3,14
D_EMO,2,16,4,0.7818202250000468,0,0,FPCNB,post,2,3,14
D_EMO,2,17,4,0.6714158260001568,1,0,FPCNB,post,2,3,14
D_EMO,2,18,4,0.9093301470002189,1,1,FPCNB,post,2,3,14
D_EMO,0,1,1,0.7130450770000607,1,0,vertex,pre,5,1,0
D_EMO,0,2,1,0.36167624800009435,1,0,vertex,pre,5,1,0
D_EMO,0,3,1,0.3788970350001364,1,0,vertex,pre,5,1,0
D_EMO,0,4,1,0.37838470599990615,1,1,vertex,pre,5,1,0
D_EMO,0,5,1,0.3470659499998874,1,0,vertex,pre,5,1,0
D_EMO,0,6,1,0.32054669500030286,1,0,vertex,pre,5,1,0
D_EMO,0,7,1,0.33666679899988594,1,0,vertex,pre,5,1,0
D_EMO,0,8,1,0.3216937509996569,1,0,vertex,pre,5,1,0
D_EMO,0,9,1,0.37681233500006783,1,1,vertex,pre,5,1,0
D_EMO,0,10,1,0.3224561709998852,1,0,vertex,pre,5,1,0
D_EMO,0,11,1,0.30436767800028974,1,1,vertex,pre,5,1,0
D_EMO,0,12,1,0.3010618980001709,1,0,vertex,pre,5,1,0
D_EMO,0,13,1,0.3444688370000222,1,1,vertex,pre,5,1,0
D_EMO,0,14,1,0.36646144999986063,1,0,vertex,pre,5,1,0
D_EMO,0,15,1,0.4065485979999721,1,1,vertex,pre,5,1,0
D_EMO,0,16,1,0.3365789310000764,1,0,vertex,pre,5,1,0
D_EMO,0,17,1,0.3228190370000448,1,1,vertex,pre,5,1,0
D_EMO,0,18,1,0.28451001999974324,1,0,vertex,pre,5,1,0
D_EMO,0,1,2,0.4044197439998243,1,0,vertex,pre,5,1,0
D_EMO,0,2,2,0.2579834039997877,1,0,vertex,pre,5,1,0
D_EMO,0,3,2,0.3247305300001244,1,0,vertex,pre,5,1,0
D_EMO,0,4,2,0.3828535479997299,1,1,vertex,pre,5,1,0
D_EMO,0,5,2,0.329113894999864,1,0,vertex,pre,5,1,0
D_EMO,0,6,2,0.430695212000046,1,0,vertex,pre,5,1,0
D_EMO,0,7,2,0.2571732799997335,1,0,vertex,pre,5,1,0
D_EMO,0,8,2,0.2325824729996384,1,0,vertex,pre,5,1,0
D_EMO,0,9,2,0.2666573360002076,0,1,vertex,pre,5,1,0
D_EMO,0,10,2,0.35899271599964777,1,0,vertex,pre,5,1,0
D_EMO,0,11,2,0.46602770999970744,1,1,vertex,pre,5,1,0
D_EMO,0,12,2,0.32495295199987595,1,0,vertex,pre,5,1,0
D_EMO,0,13,2,0.43501648299979934,1,1,vertex,pre,5,1,0
D_EMO,0,14,2,0.29349675399998887,1,0,vertex,pre,5,1,0
D_EMO,0,15,2,0.4352369040002486,1,1,vertex,pre,5,1,0
D_EMO,0,16,2,0.38587596200022745,1,0,vertex,pre,5,1,0
D_EMO,0,17,2,0.380886806000035,1,1,vertex,pre,5,1,0
D_EMO,0,18,2,0.3272450330000538,1,0,vertex,pre,5,1,0
D_EMO,0,1,3,0.33455416499964485,1,0,vertex,pre,5,1,0
D_EMO,0,2,3,0.28426190600021073,1,0,vertex,pre,5,1,0
D_EMO,0,3,3,0.316114127000219,1,0,vertex,pre,5,1,0
D_EMO,0,4,3,0.4496642049998627,1,1,vertex,pre,5,1,0
D_EMO,0,5,3,0.3576284140003736,1,0,vertex,pre,5,1,0
D_EMO,0,6,3,0.2482098139998925,1,0,vertex,pre,5,1,0
D_EMO,0,7,3,0.24909049000007144,1,0,vertex,pre,5,1,0
D_EMO,0,8,3,0.285167397999885,1,0,vertex,pre,5,1,0
D_EMO,0,9,3,0.2570091219999995,0,1,vertex,pre,5,1,0
D_EMO,0,10,3,0.3925180860001092,1,0,vertex,pre,5,1,0
D_EMO,0,11,3,0.3550270199998522,1,1,vertex,pre,5,1,0
D_EMO,0,12,3,0.29502072200011753,1,0,vertex,pre,5,1,0
D_EMO,0,13,3,0.40559597500032396,1,1,vertex,pre,5,1,0
D_EMO,0,14,3,0.3348385299996153,1,0,vertex,pre,5,1,0
D_EMO,0,15,3,0.40253631999985373,1,1,vertex,pre,5,1,0
D_EMO,0,16,3,0.2559472100001585,1,0,vertex,pre,5,1,0
D_EMO,0,17,3,0.4056905400002506,1,1,vertex,pre,5,1,0
D_EMO,0,18,3,0.32236063500022283,1,0,vertex,pre,5,1,0
D_EMO,0,1,4,0.46068319100004373,1,0,vertex,pre,5,1,0
D_EMO,0,2,4,0.24253287500005172,1,0,vertex,pre,5,1,0
D_EMO,0,3,4,0.2142157349999252,1,0,vertex,pre,5,1,0
D_EMO,0,4,4,0.3928099220001968,1,1,vertex,pre,5,1,0
D_EMO,0,5,4,0.44049088499969,1,0,vertex,pre,5,1,0
D_EMO,0,6,4,0.3132633690001967,1,0,vertex,pre,5,1,0
D_EMO,0,7,4,0.2987538120000863,1,0,vertex,pre,5,1,0
D_EMO,0,8,4,0.3465280499999608,1,0,vertex,pre,5,1,0
D_EMO,0,9,4,0.3690748049998547,1,1,vertex,pre,5,1,0
D_EMO,0,10,4,0.4516465829997287,1,0,vertex,pre,5,1,0
D_EMO,0,11,4,0.4271052920003058,1,1,vertex,pre,5,1,0
D_EMO,0,12,4,0.30939320200013753,1,0,vertex,pre,5,1,0
D_EMO,0,13,4,0.3949163239999507,1,1,vertex,pre,5,1,0
D_EMO,0,14,4,0.3231506650004121,1,0,vertex,pre,5,1,0
D_EMO,0,15,4,0.3606766279999647,1,1,vertex,pre,5,1,0
D_EMO,0,16,4,0.2511717449997377,1,0,vertex,pre,5,1,0
D_EMO,0,17,4,0.3180120500001067,1,1,vertex,pre,5,1,0
D_EMO,0,18,4,0.25842398499980845,1,0,vertex,pre,5,1,0
D_EMO,1,1,1,0.6793660540001838,1,0,vertex,pre,5,1,0
D_EMO,1,2,1,0.44208129700018617,1,0,vertex,pre,5,1,0
D_EMO,1,3,1,0.3317858880000131,1,1,vertex,pre,5,1,0
D_EMO,1,4,1,0.277102928000204,1,0,vertex,pre,5,1,0
D_EMO,1,5,1,0.5409405619998324,1,1,vertex,pre,5,1,0
D_EMO,1,6,1,0.28438942999991923,1,0,vertex,pre,5,1,0
D_EMO,1,7,1,0.2553171170002315,1,1,vertex,pre,5,1,0
D_EMO,1,8,1,0.47308562499983964,1,0,vertex,pre,5,1,0
D_EMO,1,9,1,0.33485272999996596,1,0,vertex,pre,5,1,0
D_EMO,1,10,1,0.3439171739996709,1,0,vertex,pre,5,1,0
D_EMO,1,11,1,0.4348675070000354,1,1,vertex,pre,5,1,0
D_EMO,1,12,1,0.3865479400001277,1,0,vertex,pre,5,1,0
D_EMO,1,13,1,0.2825094629997693,1,0,vertex,pre,5,1,0
D_EMO,1,14,1,0.21903083600000173,1,1,vertex,pre,5,1,0
D_EMO,1,15,1,0.44644311600040965,1,0,vertex,pre,5,1,0
D_EMO,1,16,1,0.35610070400025506,1,0,vertex,pre,5,1,0
D_EMO,1,17,1,0.3318447499996182,1,0,vertex,pre,5,1,0
D_EMO,1,18,1,0.3522762259999581,0,1,vertex,pre,5,1,0
D_EMO,1,1,2,0.3923034800000096,1,0,vertex,pre,5,1,0
D_EMO,1,2,2,0.4387336320000941,1,0,vertex,pre,5,1,0
D_EMO,1,3,2,0.2939580100000967,1,1,vertex,pre,5,1,0
D_EMO,1,4,2,0.32828922899989266,1,0,vertex,pre,5,1,0
D_EMO,1,5,2,0.3270195300001433,1,1,vertex,pre,5,1,0
D_EMO,1,6,2,0.30247517199995855,1,0,vertex,pre,5,1,0
D_EMO,1,7,2,0.307547058000182,1,0,vertex,pre,5,1,0
D_EMO,1,8,2,0.44735249200039107,1,1,vertex,pre,5,1,0
D_EMO,1,9,2,0.30784308100010094,1,0,vertex,pre,5,1,0
D_EMO,1,10,2,0.39286709499992867,1,0,vertex,pre,5,1,0
D_EMO,1,11,2,0.35009246199979316,0,1,vertex,pre,5,1,0
D_EMO,1,12,2,0.43564177000007476,1,0,vertex,pre,5,1,0
D_EMO,1,13,2,0.5316738000001351,0,0,vertex,pre,5,1,0
D_EMO,1,14,2,0.5380545650000386,1,1,vertex,pre,5,1,0
D_EMO,1,15,2,0.2303184159995908,1,0,vertex,pre,5,1,0
D_EMO,1,16,2,0.38120921999961865,1,1,vertex,pre,5,1,0
D_EMO,1,17,2,0.3554886430001716,1,0,vertex,pre,5,1,0
D_EMO,1,18,2,0.31934274700006426,1,0,vertex,pre,5,1,0
D_EMO,1,1,3,0.5983739419998528,1,0,vertex,pre,5,1,0
D_EMO,1,2,3,0.47184237999999823,1,1,vertex,pre,5,1,0
D_EMO,1,3,3,0.38071192500001416,1,0,vertex,pre,5,1,0
D_EMO,1,4,3,0.27631728500000463,1,0,vertex,pre,5,1,0
D_EMO,1,5,3,0.28810035700007575,1,1,vertex,pre,5,1,0
D_EMO,1,6,3,0.35681879800040406,1,0,vertex,pre,5,1,0
D_EMO,1,7,3,0.3043814090001433,1,1,vertex,pre,5,1,0
D_EMO,1,8,3,0.34013597799958006,1,0,vertex,pre,5,1,0
D_EMO,1,9,3,0.26049619600007645,1,0,vertex,pre,5,1,0
D_EMO,1,10,3,0.26015410999980304,0,1,vertex,pre,5,1,0
D_EMO,1,11,3,0.3918512700001884,1,0,vertex,pre,5,1,0
D_EMO,1,12,3,0.36844434199974785,1,1,vertex,pre,5,1,0
D_EMO,1,13,3,0.4635436660000778,1,0,vertex,pre,5,1,0
D_EMO,1,14,3,0.6208424780002133,1,0,vertex,pre,5,1,0
D_EMO,1,15,3,0.34744169199984754,1,0,vertex,pre,5,1,0
D_EMO,1,16,3,0.4718070799999623,1,0,vertex,pre,5,1,0
D_EMO,1,17,3,0.40375467700005174,1,0,vertex,pre,5,1,0
D_EMO,1,18,3,0.30972735299974374,1,1,vertex,pre,5,1,0
D_EMO,1,1,4,0.5202237230000719,1,0,vertex,pre,5,1,0
D_EMO,1,2,4,0.25905347300022186,0,1,vertex,pre,5,1,0
D_EMO,1,3,4,0.40879468000002817,1,0,vertex,pre,5,1,0
D_EMO,1,4,4,0.4249536090001129,1,0,vertex,pre,5,1,0
D_EMO,1,5,4,0.43489287199963655,1,0,vertex,pre,5,1,0
D_EMO,1,6,4,0.3338037499997881,1,1,vertex,pre,5,1,0
D_EMO,1,7,4,0.474564737000037,1,0,vertex,pre,5,1,0
D_EMO,1,8,4,0.5190044589999161,1,0,vertex,pre,5,1,0
D_EMO,1,9,4,0.5168227760000264,1,1,vertex,pre,5,1,0
D_EMO,1,10,4,,0,0,vertex,pre,5,1,0
D_EMO,1,11,4,0.524927402999765,1,1,vertex,pre,5,1,0
D_EMO,1,12,4,0.2737394430000677,1,0,vertex,pre,5,1,0
D_EMO,1,13,4,0.385153851999803,1,0,vertex,pre,5,1,0
D_EMO,1,14,4,0.5199229199997717,0,0,vertex,pre,5,1,0
D_EMO,1,15,4,0.4667050369998833,1,0,vertex,pre,5,1,0
D_EMO,1,16,4,0.548379063000084,1,1,vertex,pre,5,1,0
D_EMO,1,17,4,0.30240948400023626,1,0,vertex,pre,5,1,0
D_EMO,1,18,4,0.4583254379999744,1,1,vertex,pre,5,1,0
D_EMO,2,1,1,0.6300442990000192,1,0,vertex,pre,5,1,0
D_EMO,2,2,1,0.3813273600003413,1,0,vertex,pre,5,1,0
D_EMO,2,3,1,0.6549202900000637,1,1,vertex,pre,5,1,0
D_EMO,2,4,1,0.45332842799962236,1,0,vertex,pre,5,1,0
D_EMO,2,5,1,0.5562031989998104,1,0,vertex,pre,5,1,0
D_EMO,2,6,1,0.5049072460001298,1,1,vertex,pre,5,1,0
D_EMO,2,7,1,0.5665111080002134,1,0,vertex,pre,5,1,0
D_EMO,2,8,1,0.5735374900000352,1,1,vertex,pre,5,1,0
D_EMO,2,9,1,0.5499180500000875,1,0,vertex,pre,5,1,0
D_EMO,2,10,1,0.38648667500001466,1,0,vertex,pre,5,1,0
D_EMO,2,11,1,0.5551526499998545,1,1,vertex,pre,5,1,0
D_EMO,2,12,1,0.6177115999998932,1,0,vertex,pre,5,1,0
D_EMO,2,13,1,0.7234258939997744,1,0,vertex,pre,5,1,0
D_EMO,2,14,1,0.4191281630000958,1,0,vertex,pre,5,1,0
D_EMO,2,15,1,0.5272671830002764,1,1,vertex,pre,5,1,0
D_EMO,2,16,1,0.7528504030001386,1,0,vertex,pre,5,1,0
D_EMO,2,17,1,0.3174334400000589,1,0,vertex,pre,5,1,0
D_EMO,2,18,1,0.5532614980002108,1,1,vertex,pre,5,1,0
D_EMO,2,1,2,0.31741573799990874,1,0,vertex,pre,5,1,0
D_EMO,2,2,2,0.2572301340001104,1,0,vertex,pre,5,1,0
D_EMO,2,3,2,0.3828661339998689,1,1,vertex,pre,5,1,0
D_EMO,2,4,2,0.5488794399998369,1,0,vertex,pre,5,1,0
D_EMO,2,5,2,0.6001077500000065,0,1,vertex,pre,5,1,0
D_EMO,2,6,2,1.3641909040002247,1,0,vertex,pre,5,1,0
D_EMO,2,7,2,0.7406066760004251,1,0,vertex,pre,5,1,0
D_EMO,2,8,2,0.5704033429997253,1,1,vertex,pre,5,1,0
D_EMO,2,9,2,0.5710801229997742,1,0,vertex,pre,5,1,0
D_EMO,2,10,2,0.43255446000011943,1,0,vertex,pre,5,1,0
D_EMO,2,11,2,1.0804536599998755,1,1,vertex,pre,5,1,0
D_EMO,2,12,2,0.8269230850000895,1,0,vertex,pre,5,1,0
D_EMO,2,13,2,0.9076479049999762,1,1,vertex,pre,5,1,0
D_EMO,2,14,2,0.5111648619999869,1,0,vertex,pre,5,1,0
D_EMO,2,15,2,0.7826148300000568,1,0,vertex,pre,5,1,0
D_EMO,2,16,2,0.6593395200002306,1,0,vertex,pre,5,1,0
D_EMO,2,17,2,0.6359066429999984,1,0,vertex,pre,5,1,0
D_EMO,2,18,2,0.6767738569997164,1,1,vertex,pre,5,1,0
D_EMO,2,1,3,0.3898680100001002,1,0,vertex,pre,5,1,0
D_EMO,2,2,3,0.2353174449999642,1,0,vertex,pre,5,1,0
D_EMO,2,3,3,0.4187205839998569,1,0,vertex,pre,5,1,0
D_EMO,2,4,3,0.8798481540002285,1,1,vertex,pre,5,1,0
D_EMO,2,5,3,1.1905491560000883,1,0,vertex,pre,5,1,0
D_EMO,2,6,3,0.6882286119998753,1,0,vertex,pre,5,1,0
D_EMO,2,7,3,0.6338886900002763,1,1,vertex,pre,5,1,0
D_EMO,2,8,3,0.7125064260003455,1,0,vertex,pre,5,1,0
D_EMO,2,9,3,1.0700427370002217,1,0,vertex,pre,5,1,0
D_EMO,2,10,3,0.6769219550001253,0,1,vertex,pre,5,1,0
D_EMO,2,11,3,0.8828129550001904,1,0,vertex,pre,5,1,0
D_EMO,2,12,3,0.5741403800002445,1,1,vertex,pre,5,1,0
D_EMO,2,13,3,0.731984530000318,1,0,vertex,pre,5,1,0
D_EMO,2,14,3,0.7884950520001439,1,0,vertex,pre,5,1,0
D_EMO,2,15,3,0.5338494570000876,1,1,vertex,pre,5,1,0
D_EMO,2,16,3,0.4040738710000369,1,0,vertex,pre,5,1,0
D_EMO,2,17,3,0.4511232300001211,1,0,vertex,pre,5,1,0
D_EMO,2,18,3,0.48932377900018764,1,1,vertex,pre,5,1,0
D_EMO,2,1,4,0.7164179619999231,1,0,vertex,pre,5,1,0
D_EMO,2,2,4,0.7001018949999889,1,0,vertex,pre,5,1,0
D_EMO,2,3,4,0.6879545470001176,1,0,vertex,pre,5,1,0
D_EMO,2,4,4,0.776185483000063,1,1,vertex,pre,5,1,0
D_EMO,2,5,4,0.4511230019998038,1,0,vertex,pre,5,1,0
D_EMO,2,6,4,0.9217799110001579,1,0,vertex,pre,5,1,0
D_EMO,2,7,4,0.6664949800001523,1,1,vertex,pre,5,1,0
D_EMO,2,8,4,1.4284489189999476,1,0,vertex,pre,5,1,0
D_EMO,2,9,4,0.9747320339997714,0,0,vertex,pre,5,1,0
D_EMO,2,10,4,1.3853553980002289,0,1,vertex,pre,5,1,0
D_EMO,2,11,4,0.8871367540000392,1,0,vertex,pre,5,1,0
D_EMO,2,12,4,0.8837508930000695,0,1,vertex,pre,5,1,0
D_EMO,2,13,4,0.9253710379998665,1,0,vertex,pre,5,1,0
D_EMO,2,14,4,0.5791296620000139,1,1,vertex,pre,5,1,0
D_EMO,2,15,4,0.7423822259997905,1,0,vertex,pre,5,1,0
D_EMO,2,16,4,0.7129691820000517,1,0,vertex,pre,5,1,0
D_EMO,2,17,4,0.5737685239996608,1,0,vertex,pre,5,1,0
D_EMO,2,18,4,0.6413800620002803,1,1,vertex,pre,5,1,0
D_EMO,0,1,1,0.406812804000765,1,1,vertex,post,3,1,0
D_EMO,0,2,1,0.43452851099937106,1,0,vertex,post,3,1,0
D_EMO,0,3,1,0.3548541850004767,1,1,vertex,post,3,1,0
D_EMO,0,4,1,0.33736830100042425,1,0,vertex,post,3,1,0
D_EMO,0,5,1,0.36013000999992073,1,0,vertex,post,3,1,0
D_EMO,0,6,1,0.30815569999958825,1,1,vertex,post,3,1,0
D_EMO,0,7,1,0.30472634699981427,1,0,vertex,post,3,1,0
D_EMO,0,8,1,0.42753176299993356,1,0,vertex,post,3,1,0
D_EMO,0,9,1,0.35855506400002923,1,1,vertex,post,3,1,0
D_EMO,0,10,1,0.3159168280008089,1,0,vertex,post,3,1,0
D_EMO,0,11,1,0.2891255700005786,1,0,vertex,post,3,1,0
D_EMO,0,12,1,0.303030459999718,1,0,vertex,post,3,1,0
D_EMO,0,13,1,0.2781185200001346,1,0,vertex,post,3,1,0
D_EMO,0,14,1,0.2777616299999863,1,0,vertex,post,3,1,0
D_EMO,0,15,1,0.2431552729995019,1,0,vertex,post,3,1,0
D_EMO,0,16,1,0.4058426880001207,1,1,vertex,post,3,1,0
D_EMO,0,17,1,0.300573252000504,1,0,vertex,post,3,1,0
D_EMO,0,18,1,0.40793496199967194,0,1,vertex,post,3,1,0
D_EMO,0,1,2,0.5884588849994543,1,1,vertex,post,3,1,0
D_EMO,0,2,2,0.29441089299962186,1,0,vertex,post,3,1,0
D_EMO,0,3,2,0.2829523899999913,1,1,vertex,post,3,1,0
D_EMO,0,4,2,0.24055011200016452,1,0,vertex,post,3,1,0
D_EMO,0,5,2,0.33186888700038253,1,0,vertex,post,3,1,0
D_EMO,0,6,2,0.35555902699979924,1,1,vertex,post,3,1,0
D_EMO,0,7,2,0.34096030199998495,1,0,vertex,post,3,1,0
D_EMO,0,8,2,0.30587380599990865,1,0,vertex,post,3,1,0
D_EMO,0,9,2,0.3991509600000427,1,1,vertex,post,3,1,0
D_EMO,0,10,2,0.29915470800006005,1,0,vertex,post,3,1,0
D_EMO,0,11,2,0.28865347699957056,1,0,vertex,post,3,1,0
D_EMO,0,12,2,0.4202096700000766,1,0,vertex,post,3,1,0
D_EMO,0,13,2,0.3351932880004824,1,0,vertex,post,3,1,0
D_EMO,0,14,2,0.37728857999991305,1,0,vertex,post,3,1,0
D_EMO,0,15,2,0.3147199400000318,1,0,vertex,post,3,1,0
D_EMO,0,16,2,0.36916391999966436,1,1,vertex,post,3,1,0
D_EMO,0,17,2,0.2890544600004432,1,0,vertex,post,3,1,0
D_EMO,0,18,2,0.4445961979999993,1,1,vertex,post,3,1,0
D_EMO,0,1,3,0.5302458530004515,1,1,vertex,post,3,1,0
D_EMO,0,2,3,0.27712659100052406,1,0,vertex,post,3,1,0
D_EMO,0,3,3,0.3564821350000784,1,1,vertex,post,3,1,0
D_EMO,0,4,3,0.2527607519996309,1,0,vertex,post,3,1,0
D_EMO,0,5,3,0.2659796020006979,1,0,vertex,post,3,1,0
D_EMO,0,6,3,0.42531899500045256,1,1,vertex,post,3,1,0
D_EMO,0,7,3,0.27673811500062584,1,0,vertex,post,3,1,0
D_EMO,0,8,3,0.26969128499968065,1,0,vertex,post,3,1,0
D_EMO,0,9,3,0.3790868860005503,1,1,vertex,post,3,1,0
D_EMO,0,10,3,0.22225783199974103,1,0,vertex,post,3,1,0
D_EMO,0,11,3,0.2592692130001524,1,0,vertex,post,3,1,0
D_EMO,0,12,3,0.282579402999545,1,0,vertex,post,3,1,0
D_EMO,0,13,3,0.28812232600012067,1,0,vertex,post,3,1,0
D_EMO,0,14,3,0.3548076899996886,1,0,vertex,post,3,1,0
D_EMO,0,15,3,0.24232692799978395,1,0,vertex,post,3,1,0
D_EMO,0,16,3,0.24991616799979965,0,1,vertex,post,3,1,0
D_EMO,0,17,3,0.2592625980005323,1,0,vertex,post,3,1,0
D_EMO,0,18,3,0.4075528540006417,1,1,vertex,post,3,1,0
D_EMO,0,1,4,0.5252017379998506,1,1,vertex,post,3,1,0
D_EMO,0,2,4,0.366810696000357,1,0,vertex,post,3,1,0
D_EMO,0,3,4,0.27955680200011557,1,1,vertex,post,3,1,0
D_EMO,0,4,4,0.2530447750004896,1,0,vertex,post,3,1,0
D_EMO,0,5,4,0.40880157399988093,1,0,vertex,post,3,1,0
D_EMO,0,6,4,0.3115059879992259,1,1,vertex,post,3,1,0
D_EMO,0,7,4,0.24924877800003742,1,0,vertex,post,3,1,0
D_EMO,0,8,4,0.34395340099945315,1,0,vertex,post,3,1,0
D_EMO,0,9,4,0.3126354000005449,1,1,vertex,post,3,1,0
D_EMO,0,10,4,0.321344783999848,1,0,vertex,post,3,1,0
D_EMO,0,11,4,0.3219976630007295,1,0,vertex,post,3,1,0
D_EMO,0,12,4,0.26396601499982353,1,0,vertex,post,3,1,0
D_EMO,0,13,4,0.32589226799973403,1,0,vertex,post,3,1,0
D_EMO,0,14,4,0.2638648929996634,1,0,vertex,post,3,1,0
D_EMO,0,15,4,0.28997956799958047,1,0,vertex,post,3,1,0
D_EMO,0,16,4,0.41166060799969273,1,1,vertex,post,3,1,0
D_EMO,0,17,4,0.24844931999996334,1,0,vertex,post,3,1,0
D_EMO,0,18,4,0.49935672799983877,1,1,vertex,post,3,1,0
D_EMO,1,1,1,0.2902161830006662,1,0,vertex,post,3,1,0
D_EMO,1,2,1,0.44508452199988824,1,1,vertex,post,3,1,0
D_EMO,1,3,1,0.3511704999991707,1,0,vertex,post,3,1,0
D_EMO,1,4,1,0.5140867649997745,1,0,vertex,post,3,1,0
D_EMO,1,5,1,0.426049487000455,0,1,vertex,post,3,1,0
D_EMO,1,6,1,0.5293757500003267,1,0,vertex,post,3,1,0
D_EMO,1,7,1,0.541306075000648,1,1,vertex,post,3,1,0
D_EMO,1,8,1,0.4200322960004996,1,0,vertex,post,3,1,0
D_EMO,1,9,1,0.5005259050003588,1,0,vertex,post,3,1,0
D_EMO,1,10,1,0.38619501199991646,1,1,vertex,post,3,1,0
D_EMO,1,11,1,0.3828506700001526,1,0,vertex,post,3,1,0
D_EMO,1,12,1,0.6567629040000611,1,1,vertex,post,3,1,0
D_EMO,1,13,1,0.6644619049993707,1,0,vertex,post,3,1,0
D_EMO,1,14,1,0.36620549999952345,1,0,vertex,post,3,1,0
D_EMO,1,15,1,0.4335580619999746,1,0,vertex,post,3,1,0
D_EMO,1,16,1,0.41700380400016,1,0,vertex,post,3,1,0
D_EMO,1,17,1,0.3239042169998356,1,0,vertex,post,3,1,0
D_EMO,1,18,1,0.4602283800004443,0,1,vertex,post,3,1,0
D_EMO,1,1,2,0.5071320620008919,1,0,vertex,post,3,1,0
D_EMO,1,2,2,0.30344020099983027,1,0,vertex,post,3,1,0
D_EMO,1,3,2,0.37866978800047946,0,1,vertex,post,3,1,0
D_EMO,1,4,2,0.47198864100028004,1,0,vertex,post,3,1,0
D_EMO,1,5,2,0.3465907589998096,1,1,vertex,post,3,1,0
D_EMO,1,6,2,0.43058704100076284,1,0,vertex,post,3,1,0
D_EMO,1,7,2,0.4320691699995223,0,0,vertex,post,3,1,0
D_EMO,1,8,2,0.5774938849999671,1,1,vertex,post,3,1,0
D_EMO,1,9,2,0.38944856299985986,1,0,vertex,post,3,1,0
D_EMO,1,10,2,0.3671186649999072,1,0,vertex,post,3,1,0
D_EMO,1,11,2,0.6436480980000852,0,1,vertex,post,3,1,0
D_EMO,1,12,2,0.5674034200001188,1,0,vertex,post,3,1,0
D_EMO,1,13,2,0.35741569600031653,1,0,vertex,post,3,1,0
D_EMO,1,14,2,0.4426917669998147,1,1,vertex,post,3,1,0
D_EMO,1,15,2,0.4650841570000921,1,0,vertex,post,3,1,0
D_EMO,1,16,2,0.31842169999981706,1,1,vertex,post,3,1,0
D_EMO,1,17,2,0.2772649200005617,1,0,vertex,post,3,1,0
D_EMO,1,18,2,0.38601280600050814,1,0,vertex,post,3,1,0
D_EMO,1,1,3,0.29633558400018956,1,0,vertex,post,3,1,0
D_EMO,1,2,3,0.5496520339993367,1,1,vertex,post,3,1,0
D_EMO,1,3,3,0.5689366560000053,1,0,vertex,post,3,1,0
D_EMO,1,4,3,0.3091535500007012,1,0,vertex,post,3,1,0
D_EMO,1,5,3,0.43785557999945013,1,0,vertex,post,3,1,0
D_EMO,1,6,3,0.3126039259996105,1,1,vertex,post,3,1,0
D_EMO,1,7,3,0.25882933999946545,1,0,vertex,post,3,1,0
D_EMO,1,8,3,0.34673982899948896,1,0,vertex,post,3,1,0
D_EMO,1,9,3,0.4264218099997379,1,1,vertex,post,3,1,0
D_EMO,1,10,3,0.22335578599995642,1,0,vertex,post,3,1,0
D_EMO,1,11,3,0.36010523099957936,1,1,vertex,post,3,1,0
D_EMO,1,12,3,0.3418669279999449,1,0,vertex,post,3,1,0
D_EMO,1,13,3,0.3914335850004136,1,0,vertex,post,3,1,0
D_EMO,1,14,3,0.2931847800000469,1,0,vertex,post,3,1,0
D_EMO,1,15,3,0.29337231799945584,1,0,vertex,post,3,1,0
D_EMO,1,16,3,0.3959152850002283,1,1,vertex,post,3,1,0
D_EMO,1,17,3,0.29669123999974545,1,0,vertex,post,3,1,0
D_EMO,1,18,3,0.42515874999935477,1,1,vertex,post,3,1,0
D_EMO,1,1,4,0.5398452899999029,1,0,vertex,post,3,1,0
D_EMO,1,2,4,0.3564749299994219,1,0,vertex,post,3,1,0
D_EMO,1,3,4,0.3911899770000673,1,1,vertex,post,3,1,0
D_EMO,1,4,4,0.38562600499972177,1,0,vertex,post,3,1,0
D_EMO,1,5,4,0.4376028659999065,1,1,vertex,post,3,1,0
D_EMO,1,6,4,0.3737584880000213,1,0,vertex,post,3,1,0
D_EMO,1,7,4,0.35765182199975243,0,1,vertex,post,3,1,0
D_EMO,1,8,4,0.4335751230000824,1,0,vertex,post,3,1,0
D_EMO,1,9,4,0.4323687759997483,1,0,vertex,post,3,1,0
D_EMO,1,10,4,0.5888028559993472,0,0,vertex,post,3,1,0
D_EMO,1,11,4,0.48840818900043814,1,1,vertex,post,3,1,0
D_EMO,1,12,4,0.33402878000015335,1,0,vertex,post,3,1,0
D_EMO,1,13,4,0.3169576430000234,1,0,vertex,post,3,1,0
D_EMO,1,14,4,0.2739610990001893,1,1,vertex,post,3,1,0
D_EMO,1,15,4,0.492794638000305,1,0,vertex,post,3,1,0
D_EMO,1,16,4,0.29863784200006194,1,0,vertex,post,3,1,0
D_EMO,1,17,4,0.2920734839999568,1,0,vertex,post,3,1,0
D_EMO,1,18,4,0.5138642060001075,1,1,vertex,post,3,1,0
D_EMO,2,1,1,0.45104250199983653,1,0,vertex,post,3,1,0
D_EMO,2,2,1,0.715560953000022,1,0,vertex,post,3,1,0
D_EMO,2,3,1,0.39144091800062597,0,0,vertex,post,3,1,0
D_EMO,2,4,1,0.9312478120000378,1,1,vertex,post,3,1,0
D_EMO,2,5,1,0.900249371999962,1,0,vertex,post,3,1,0
D_EMO,2,6,1,0.702457931999561,1,0,vertex,post,3,1,0
D_EMO,2,7,1,0.5283503329992527,1,1,vertex,post,3,1,0
D_EMO,2,8,1,0.5148134330001994,1,0,vertex,post,3,1,0
D_EMO,2,9,1,0.5915965579997646,1,0,vertex,post,3,1,0
D_EMO,2,10,1,0.8474118920003093,1,1,vertex,post,3,1,0
D_EMO,2,11,1,0.696916185000191,1,0,vertex,post,3,1,0
D_EMO,2,12,1,0.8406709820001197,1,1,vertex,post,3,1,0
D_EMO,2,13,1,0.37427741600004083,1,0,vertex,post,3,1,0
D_EMO,2,14,1,0.5830345160002253,1,0,vertex,post,3,1,0
D_EMO,2,15,1,0.7663423009998951,1,1,vertex,post,3,1,0
D_EMO,2,16,1,0.6767050900007234,1,0,vertex,post,3,1,0
D_EMO,2,17,1,0.5584995090002849,1,0,vertex,post,3,1,0
D_EMO,2,18,1,0.7273573190004754,0,1,vertex,post,3,1,0
D_EMO,2,1,2,0.26869531300053495,1,0,vertex,post,3,1,0
D_EMO,2,2,2,0.43074345599961816,1,0,vertex,post,3,1,0
D_EMO,2,3,2,0.6609603280003284,1,1,vertex,post,3,1,0
D_EMO,2,4,2,0.5847245819995806,1,0,vertex,post,3,1,0
D_EMO,2,5,2,0.5673635550001563,1,1,vertex,post,3,1,0
D_EMO,2,6,2,0.670015040999715,1,0,vertex,post,3,1,0
D_EMO,2,7,2,0.581819825999446,1,0,vertex,post,3,1,0
D_EMO,2,8,2,0.5522710100003678,1,1,vertex,post,3,1,0
D_EMO,2,9,2,0.6461411850004879,1,0,vertex,post,3,1,0
D_EMO,2,10,2,1.3647730399998181,1,0,vertex,post,3,1,0
D_EMO,2,11,2,0.8275664940001661,1,1,vertex,post,3,1,0
D_EMO,2,12,2,0.7233763060003184,1,0,vertex,post,3,1,0
D_EMO,2,13,2,0.3894798349992925,1,1,vertex,post,3,1,0
D_EMO,2,14,2,0.49283699199986586,1,0,vertex,post,3,1,0
D_EMO,2,15,2,0.5212070640000093,1,0,vertex,post,3,1,0
D_EMO,2,16,2,0.916831208000076,0,0,vertex,post,3,1,0
D_EMO,2,17,2,0.7158176900002218,1,0,vertex,post,3,1,0
D_EMO,2,18,2,0.4790926830000899,1,1,vertex,post,3,1,0
D_EMO,2,1,3,0.7920135279991882,1,0,vertex,post,3,1,0
D_EMO,2,2,3,0.27560286600055406,1,0,vertex,post,3,1,0
D_EMO,2,3,3,0.5100458120004987,1,0,vertex,post,3,1,0
D_EMO,2,4,3,0.7311130990001402,1,1,vertex,post,3,1,0
D_EMO,2,5,3,0.9968057800006136,1,0,vertex,post,3,1,0
D_EMO,2,6,3,1.0724645500004044,1,0,vertex,post,3,1,0
D_EMO,2,7,3,0.657135991999894,1,1,vertex,post,3,1,0
D_EMO,2,8,3,0.46077253200019186,1,0,vertex,post,3,1,0
D_EMO,2,9,3,0.4234572229997866,1,0,vertex,post,3,1,0
D_EMO,2,10,3,0.5920208020006612,1,1,vertex,post,3,1,0
D_EMO,2,11,3,0.6489637279992166,1,0,vertex,post,3,1,0
D_EMO,2,12,3,1.0183141359993897,1,1,vertex,post,3,1,0
D_EMO,2,13,3,0.8891496259993801,1,0,vertex,post,3,1,0
D_EMO,2,14,3,0.8416559229999621,1,1,vertex,post,3,1,0
D_EMO,2,15,3,0.4853521479999472,1,0,vertex,post,3,1,0
D_EMO,2,16,3,0.8122926719997849,0,0,vertex,post,3,1,0
D_EMO,2,17,3,0.6392366000000038,1,0,vertex,post,3,1,0
D_EMO,2,18,3,0.7188812120002694,0,1,vertex,post,3,1,0
D_EMO,2,1,4,0.5325258769998982,1,0,vertex,post,3,1,0
D_EMO,2,2,4,0.5973028119997252,1,0,vertex,post,3,1,0
D_EMO,2,3,4,0.6097679500007871,1,1,vertex,post,3,1,0
D_EMO,2,4,4,0.4041735589999007,1,0,vertex,post,3,1,0
D_EMO,2,5,4,0.5211094529995535,1,0,vertex,post,3,1,0
D_EMO,2,6,4,0.5515258420000464,1,1,vertex,post,3,1,0
D_EMO,2,7,4,0.4943224700000428,1,0,vertex,post,3,1,0
D_EMO,2,8,4,0.7177571760003048,1,1,vertex,post,3,1,0
D_EMO,2,9,4,0.9345423200002188,1,0,vertex,post,3,1,0
D_EMO,2,10,4,1.2095841270001984,1,0,vertex,post,3,1,0
D_EMO,2,11,4,0.7221308130001489,1,1,vertex,post,3,1,0
D_EMO,2,12,4,0.5457476629999292,1,0,vertex,post,3,1,0
D_EMO,2,13,4,0.42174470400004793,1,0,vertex,post,3,1,0
D_EMO,2,14,4,0.8879715949997262,1,0,vertex,post,3,1,0
D_EMO,2,15,4,0.6665010480001001,1,1,vertex,post,3,1,0
D_EMO,2,16,4,0.4699750680001671,1,0,vertex,post,3,1,0
D_EMO,2,17,4,0.5746903700000985,0,0,vertex,post,3,1,0
D_EMO,2,18,4,0.7075765250001496,0,1,vertex,post,3,1,0
D_HTY,0,1,1,0.51346422,1,1,DAN,pre,3,3,69
D_HTY,0,2,1,0.368868721,1,0,DAN,pre,3,3,69
D_HTY,0,3,1,0.426120499,1,1,DAN,pre,3,3,69
D_HTY,0,4,1,0.365540069,1,0,DAN,pre,3,3,69
D_HTY,0,5,1,0.392117923,1,0,DAN,pre,3,3,69
D_HTY,0,6,1,0.40397544,1,1,DAN,pre,3,3,69
D_HTY,0,7,1,0.399882955,1,0,DAN,pre,3,3,69
D_HTY,0,8,1,0.4900239,1,0,DAN,pre,3,3,69
D_HTY,0,9,1,0.416067853,1,1,DAN,pre,3,3,69
D_HTY,0,10,1,0.358114885,1,0,DAN,pre,3,3,69
D_HTY,0,11,1,0.414895796,1,0,DAN,pre,3,3,69
D_HTY,0,12,1,0.403797659,1,0,DAN,pre,3,3,69
D_HTY,0,13,1,0.376752709,1,0,DAN,pre,3,3,69
D_HTY,0,14,1,0.35712826,1,0,DAN,pre,3,3,69
D_HTY,0,15,1,0.360167333,1,0,DAN,pre,3,3,69
D_HTY,0,16,1,0.338212155,1,1,DAN,pre,3,3,69
D_HTY,0,17,1,0.353942096,1,0,DAN,pre,3,3,69
D_HTY,0,18,1,0.47012593,1,1,DAN,pre,3,3,69
D_HTY,0,1,2,0.469096349,1,1,DAN,pre,3,3,69
D_HTY,0,2,2,0.334525572,1,0,DAN,pre,3,3,69
D_HTY,0,3,2,0.370518458,1,1,DAN,pre,3,3,69
D_HTY,0,4,2,0.332151912,1,0,DAN,pre,3,3,69
D_HTY,0,5,2,0.376658728,1,0,DAN,pre,3,3,69
D_HTY,0,6,2,0.436510176,1,1,DAN,pre,3,3,69
D_HTY,0,7,2,0.341412876,1,0,DAN,pre,3,3,69
D_HTY,0,8,2,0.34186513,1,0,DAN,pre,3,3,69
D_HTY,0,9,2,0.412577699,1,1,DAN,pre,3,3,69
D_HTY,0,10,2,0.358079971,1,0,DAN,pre,3,3,69
D_HTY,0,11,2,0.338873239,1,0,DAN,pre,3,3,69
D_HTY,0,12,2,0.367301073,1,0,DAN,pre,3,3,69
D_HTY,0,13,2,0.406186472,1,0,DAN,pre,3,3,69
D_HTY,0,14,2,0.479087722,1,0,DAN,pre,3,3,69
D_HTY,0,15,2,0.38384809,1,0,DAN,pre,3,3,69
D_HTY,0,16,2,0.270289646,1,1,DAN,pre,3,3,69
D_HTY,0,17,2,0.311114238,1,0,DAN,pre,3,3,69
D_HTY,0,18,2,0.265671665,1,1,DAN,pre,3,3,69
D_HTY,0,1,3,0.400317256,1,1,DAN,pre,3,3,69
D_HTY,0,2,3,0.299652976,1,0,DAN,pre,3,3,69
D_HTY,0,3,3,0.401629879,1,1,DAN,pre,3,3,69
D_HTY,0,4,3,0.337333404,1,0,DAN,pre,3,3,69
D_HTY,0,5,3,0.376748319,1,0,DAN,pre,3,3,69
D_HTY,0,6,3,0.30085929,0,1,DAN,pre,3,3,69
D_HTY,0,7,3,0.426941729,1,0,DAN,pre,3,3,69
D_HTY,0,8,3,0.435158602,1,0,DAN,pre,3,3,69
D_HTY,0,9,3,0.428309326,1,1,DAN,pre,3,3,69
D_HTY,0,10,3,0.322883021,1,0,DAN,pre,3,3,69
D_HTY,0,11,3,0.506700627,1,0,DAN,pre,3,3,69
D_HTY,0,12,3,0.412286388,1,0,DAN,pre,3,3,69
D_HTY,0,13,3,0.401612927,1,0,DAN,pre,3,3,69
D_HTY,0,14,3,0.310213866,1,0,DAN,pre,3,3,69
D_HTY,0,15,3,0.413354286,1,0,DAN,pre,3,3,69
D_HTY,0,16,3,0.367134825,1,1,DAN,pre,3,3,69
D_HTY,0,17,3,0.364065779,1,0,DAN,pre,3,3,69
D_HTY,0,18,3,0.404275595,1,1,DAN,pre,3,3,69
D_HTY,0,1,4,0.254969739,1,1,DAN,pre,3,3,69
D_HTY,0,2,4,0.286228354,1,0,DAN,pre,3,3,69
D_HTY,0,3,4,0.328241622,1,1,DAN,pre,3,3,69
D_HTY,0,4,4,0.341096323,1,0,DAN,pre,3,3,69
D_HTY,0,5,4,0.354540814,1,0,DAN,pre,3,3,69
D_HTY,0,6,4,0.417341153,1,1,DAN,pre,3,3,69
D_HTY,0,7,4,0.309554377,1,0,DAN,pre,3,3,69
D_HTY,0,8,4,0.35709646,1,0,DAN,pre,3,3,69
D_HTY,0,9,4,0.382011811,1,1,DAN,pre,3,3,69
D_HTY,0,10,4,0.284587388,1,0,DAN,pre,3,3,69
D_HTY,0,11,4,0.342970775,1,0,DAN,pre,3,3,69
D_HTY,0,12,4,0.418830298,1,0,DAN,pre,3,3,69
D_HTY,0,13,4,0.45538004,1,0,DAN,pre,3,3,69
D_HTY,0,14,4,0.35255849,1,0,DAN,pre,3,3,69
D_HTY,0,15,4,0.357471057,1,0,DAN,pre,3,3,69
D_HTY,0,16,4,0.253210751,1,1,DAN,pre,3,3,69
D_HTY,0,17,4,0.381587952,1,0,DAN,pre,3,3,69
D_HTY,0,18,4,0.331674803,1,1,DAN,pre,3,3,69
D_HTY,1,1,1,0.280910188,1,0,DAN,pre,3,3,69
D_HTY,1,2,1,0.350517927,1,1,DAN,pre,3,3,69
D_HTY,1,3,1,0.378223711,1,0,DAN,pre,3,3,69
D_HTY,1,4,1,0.395762784,1,0,DAN,pre,3,3,69
D_HTY,1,5,1,0.438354512,1,1,DAN,pre,3,3,69
D_HTY,1,6,1,0.365186652,1,0,DAN,pre,3,3,69
D_HTY,1,7,1,0.36777888,1,1,DAN,pre,3,3,69
D_HTY,1,8,1,0.391324905,1,0,DAN,pre,3,3,69
D_HTY,1,9,1,0.32621961,1,0,DAN,pre,3,3,69
D_HTY,1,10,1,0.381585177,0,1,DAN,pre,3,3,69
D_HTY,1,11,1,0.33621636,1,0,DAN,pre,3,3,69
D_HTY,1,12,1,0.483414871,1,1,DAN,pre,3,3,69
D_HTY,1,13,1,0.690195526,1,0,DAN,pre,3,3,69
D_HTY,1,14,1,0.510023463,1,0,DAN,pre,3,3,69
D_HTY,1,15,1,0.484005715,1,0,DAN,pre,3,3,69
D_HTY,1,16,1,0.441317377,1,0,DAN,pre,3,3,69
D_HTY,1,17,1,0.598188618,1,0,DAN,pre,3,3,69
D_HTY,1,18,1,0.551718278,1,1,DAN,pre,3,3,69
D_HTY,1,1,2,0.388908472,1,0,DAN,pre,3,3,69
D_HTY,1,2,2,0.409009995,1,0,DAN,pre,3,3,69
D_HTY,1,3,2,0.440004932,1,1,DAN,pre,3,3,69
D_HTY,1,4,2,0.258113146,1,0,DAN,pre,3,3,69
D_HTY,1,5,2,0.34196616,1,1,DAN,pre,3,3,69
D_HTY,1,6,2,0.2754934,1,0,DAN,pre,3,3,69
D_HTY,1,7,2,0.443255784,1,0,DAN,pre,3,3,69
D_HTY,1,8,2,0.477953218,1,1,DAN,pre,3,3,69
D_HTY,1,9,2,0.4621124,1,0,DAN,pre,3,3,69
D_HTY,1,10,2,0.67772742,1,0,DAN,pre,3,3,69
D_HTY,1,11,2,0.308503841,1,1,DAN,pre,3,3,69
D_HTY,1,12,2,0.339281604,1,0,DAN,pre,3,3,69
D_HTY,1,13,2,0.75424208,1,0,DAN,pre,3,3,69
D_HTY,1,14,2,0.339637128,1,1,DAN,pre,3,3,69
D_HTY,1,15,2,0.300554502,1,0,DAN,pre,3,3,69
D_HTY,1,16,2,0.48977577,1,1,DAN,pre,3,3,69
D_HTY,1,17,2,0.308716844,1,0,DAN,pre,3,3,69
D_HTY,1,18,2,0.539488311,0,0,DAN,pre,3,3,69
D_HTY,1,1,3,0.348643389,1,0,DAN,pre,3,3,69
D_HTY,1,2,3,0.353009312,1,1,DAN,pre,3,3,69
D_HTY,1,3,3,0.259578698,1,0,DAN,pre,3,3,69
D_HTY,1,4,3,0.428317102,1,0,DAN,pre,3,3,69
D_HTY,1,5,3,0.467967594,1,0,DAN,pre,3,3,69
D_HTY,1,6,3,0.437757682,1,1,DAN,pre,3,3,69
D_HTY,1,7,3,0.677162226,1,0,DAN,pre,3,3,69
D_HTY,1,8,3,0.528777018,1,0,DAN,pre,3,3,69
D_HTY,1,9,3,0.370648659,1,1,DAN,pre,3,3,69
D_HTY,1,10,3,0.320413998,1,0,DAN,pre,3,3,69
D_HTY,1,11,3,0.416453209,1,1,DAN,pre,3,3,69
D_HTY,1,12,3,0.383662914,1,0,DAN,pre,3,3,69
D_HTY,1,13,3,0.48526693,1,0,DAN,pre,3,3,69
D_HTY,1,14,3,0.452035435,1,0,DAN,pre,3,3,69
D_HTY,1,15,3,0.512777596,1,0,DAN,pre,3,3,69
D_HTY,1,16,3,0.60049918,1,1,DAN,pre,3,3,69
D_HTY,1,17,3,0.353483876,1,0,DAN,pre,3,3,69
D_HTY,1,18,3,0.353461444,1,1,DAN,pre,3,3,69
D_HTY,1,1,4,0.468271172,1,0,DAN,pre,3,3,69
D_HTY,1,2,4,0.403056812,1,0,DAN,pre,3,3,69
D_HTY,1,3,4,0.502596638,1,1,DAN,pre,3,3,69
D_HTY,1,4,4,0.385290316,1,0,DAN,pre,3,3,69
D_HTY,1,5,4,0.727540733,1,1,DAN,pre,3,3,69
D_HTY,1,6,4,0.306832068,1,0,DAN,pre,3,3,69
D_HTY,1,7,4,0.40958953,1,1,DAN,pre,3,3,69
D_HTY,1,8,4,0.279821644,1,0,DAN,pre,3,3,69
D_HTY,1,9,4,0.440162429,1,0,DAN,pre,3,3,69
D_HTY,1,10,4,0.428751256,1,0,DAN,pre,3,3,69
D_HTY,1,11,4,0.523629328,1,1,DAN,pre,3,3,69
D_HTY,1,12,4,0.378009986,1,0,DAN,pre,3,3,69
D_HTY,1,13,4,0.662787355,1,0,DAN,pre,3,3,69
D_HTY,1,14,4,0.81206636,1,1,DAN,pre,3,3,69
D_HTY,1,15,4,0.476211472,1,0,DAN,pre,3,3,69
D_HTY,1,16,4,0.47713036,1,0,DAN,pre,3,3,69
D_HTY,1,17,4,0.400416572,1,0,DAN,pre,3,3,69
D_HTY,1,18,4,0.420592238,1,1,DAN,pre,3,3,69
D_HTY,2,1,1,0.536990631,1,0,DAN,pre,3,3,69
D_HTY,2,2,1,0.464501301,1,0,DAN,pre,3,3,69
D_HTY,2,3,1,0.457088493,1,0,DAN,pre,3,3,69
D_HTY,2,4,1,0.347714125,1,1,DAN,pre,3,3,69
D_HTY,2,5,1,0.449521822,1,0,DAN,pre,3,3,69
D_HTY,2,6,1,0.467752904,1,0,DAN,pre,3,3,69
D_HTY,2,7,1,0.358569934,1,1,DAN,pre,3,3,69
D_HTY,2,8,1,0.542365564,1,0,DAN,pre,3,3,69
D_HTY,2,9,1,0.590121793,1,0,DAN,pre,3,3,69
D_HTY,2,10,1,0.78767516,1,1,DAN,pre,3,3,69
D_HTY,2,11,1,0.436262651,1,0,DAN,pre,3,3,69
D_HTY,2,12,1,0.335879067,1,1,DAN,pre,3,3,69
D_HTY,2,13,1,0.376387278,1,0,DAN,pre,3,3,69
D_HTY,2,14,1,0.74899098,1,0,DAN,pre,3,3,69
D_HTY,2,15,1,0.577676953,1,1,DAN,pre,3,3,69
D_HTY,2,16,1,0.70436005,1,0,DAN,pre,3,3,69
D_HTY,2,17,1,0.645539197,1,0,DAN,pre,3,3,69
D_HTY,2,18,1,0.355047192,1,1,DAN,pre,3,3,69
D_HTY,2,1,2,0.302080274,1,0,DAN,pre,3,3,69
D_HTY,2,2,2,0.417129056,1,0,DAN,pre,3,3,69
D_HTY,2,3,2,0.725615477,1,1,DAN,pre,3,3,69
D_HTY,2,4,2,1.279427586,1,0,DAN,pre,3,3,69
D_HTY,2,5,2,0.782073182,1,1,DAN,pre,3,3,69
D_HTY,2,6,2,0.744848016,1,0,DAN,pre,3,3,69
D_HTY,2,7,2,0.738216072,1,0,DAN,pre,3,3,69
D_HTY,2,8,2,0.360929743,1,1,DAN,pre,3,3,69
D_HTY,2,9,2,1.137807889,1,0,DAN,pre,3,3,69
D_HTY,2,10,2,0.716215194,1,0,DAN,pre,3,3,69
D_HTY,2,11,2,0.961430213,1,1,DAN,pre,3,3,69
D_HTY,2,12,2,0.593211341,1,0,DAN,pre,3,3,69
D_HTY,2,13,2,0.386860261,1,1,DAN,pre,3,3,69
D_HTY,2,14,2,0.685971079,1,0,DAN,pre,3,3,69
D_HTY,2,15,2,1.1464449,1,0,DAN,pre,3,3,69
D_HTY,2,16,2,0.783475308,1,0,DAN,pre,3,3,69
D_HTY,2,17,2,0.891720484,1,0,DAN,pre,3,3,69
D_HTY,2,18,2,0.401681738,1,1,DAN,pre,3,3,69
D_HTY,2,1,3,0.386836069,1,0,DAN,pre,3,3,69
D_HTY,2,2,3,0.324578162,1,0,DAN,pre,3,3,69
D_HTY,2,3,3,0.48625847,1,0,DAN,pre,3,3,69
D_HTY,2,4,3,0.498537755,1,1,DAN,pre,3,3,69
D_HTY,2,5,3,1.36108565,1,0,DAN,pre,3,3,69
D_HTY,2,6,3,0.59209523,1,0,DAN,pre,3,3,69
D_HTY,2,7,3,0.4172052,1,1,DAN,pre,3,3,69
D_HTY,2,8,3,0.729245367,1,0,DAN,pre,3,3,69
D_HTY,2,9,3,0.605541378,1,0,DAN,pre,3,3,69
D_HTY,2,10,3,0.715243771,1,1,DAN,pre,3,3,69
D_HTY,2,11,3,1.879480451,1,0,DAN,pre,3,3,69
D_HTY,2,12,3,1.092796487,0,1,DAN,pre,3,3,69
D_HTY,2,13,3,0.656149893,1,0,DAN,pre,3,3,69
D_HTY,2,14,3,0.472749308,1,1,DAN,pre,3,3,69
D_HTY,2,15,3,0.955765778,1,0,DAN,pre,3,3,69
D_HTY,2,16,3,0.680353641,1,0,DAN,pre,3,3,69
D_HTY,2,17,3,0.554993761,1,0,DAN,pre,3,3,69
D_HTY,2,18,3,0.460166303,1,1,DAN,pre,3,3,69
D_HTY,2,1,4,0.37174964,1,0,DAN,pre,3,3,69
D_HTY,2,2,4,0.382325415,1,0,DAN,pre,3,3,69
D_HTY,2,3,4,0.79832809,1,1,DAN,pre,3,3,69
D_HTY,2,4,4,0.69796237,1,0,DAN,pre,3,3,69
D_HTY,2,5,4,0.808258199,1,0,DAN,pre,3,3,69
D_HTY,2,6,4,0.493222901,1,1,DAN,pre,3,3,69
D_HTY,2,7,4,0.573440294,1,0,DAN,pre,3,3,69
D_HTY,2,8,4,0.484653986,1,1,DAN,pre,3,3,69
D_HTY,2,9,4,0.792551214,1,0,DAN,pre,3,3,69
D_HTY,2,10,4,0.669506822,1,0,DAN,pre,3,3,69
D_HTY,2,11,4,0.549851244,1,1,DAN,pre,3,3,69
D_HTY,2,12,4,1.00656329,1,0,DAN,pre,3,3,69
D_HTY,2,13,4,1.626112524,1,0,DAN,pre,3,3,69
D_HTY,2,14,4,0.825543911,1,0,DAN,pre,3,3,69
D_HTY,2,15,4,0.583608391,1,1,DAN,pre,3,3,69
D_HTY,2,16,4,1.119172667,1,0,DAN,pre,3,3,69
D_HTY,2,17,4,0.932032754,1,0,DAN,pre,3,3,69
D_HTY,2,18,4,0.692550805,1,1,DAN,pre,3,3,69
D_HTY,0,1,1,0.377581692,1,0,DAN,post,4,3,69
D_HTY,0,2,1,0.33812897,1,0,DAN,post,4,3,69
D_HTY,0,3,1,0.310713897,1,0,DAN,post,4,3,69
D_HTY,0,4,1,0.31051592,1,0,DAN,post,4,3,69
D_HTY,0,5,1,0.248489183,1,1,DAN,post,4,3,69
D_HTY,0,6,1,0.296066246,1,0,DAN,post,4,3,69
D_HTY,0,7,1,0.256669693,1,1,DAN,post,4,3,69
D_HTY,0,8,1,0.339657927,1,0,DAN,post,4,3,69
D_HTY,0,9,1,0.367728814,1,0,DAN,post,4,3,69
D_HTY,0,10,1,0.423508613,1,0,DAN,post,4,3,69
D_HTY,0,11,1,0.406241511,1,0,DAN,post,4,3,69
D_HTY,0,12,1,0.387734734,1,1,DAN,post,4,3,69
D_HTY,0,13,1,0.295694777,1,0,DAN,post,4,3,69
D_HTY,0,14,1,0.300171936,1,1,DAN,post,4,3,69
D_HTY,0,15,1,0.323983203,1,0,DAN,post,4,3,69
D_HTY,0,16,1,0.348244271,1,1,DAN,post,4,3,69
D_HTY,0,17,1,0.272074866,1,0,DAN,post,4,3,69
D_HTY,0,18,1,0.265808517,1,1,DAN,post,4,3,69
D_HTY,0,1,2,0.35796363,1,0,DAN,post,4,3,69
D_HTY,0,2,2,0.36377191,1,0,DAN,post,4,3,69
D_HTY,0,3,2,0.314539614,1,0,DAN,post,4,3,69
D_HTY,0,4,2,0.407084882,1,0,DAN,post,4,3,69
D_HTY,0,5,2,0.310629073,1,1,DAN,post,4,3,69
D_HTY,0,6,2,0.328209772,1,0,DAN,post,4,3,69
D_HTY,0,7,2,0.280340475,1,1,DAN,post,4,3,69
D_HTY,0,8,2,0.390524132,1,0,DAN,post,4,3,69
D_HTY,0,9,2,0.409334958,1,0,DAN,post,4,3,69
D_HTY,0,10,2,0.380203534,1,0,DAN,post,4,3,69
D_HTY,0,11,2,0.364887605,1,0,DAN,post,4,3,69
D_HTY,0,12,2,0.346460728,1,1,DAN,post,4,3,69
D_HTY,0,13,2,0.385899564,1,0,DAN,post,4,3,69
D_HTY,0,14,2,0.44160517,1,1,DAN,post,4,3,69
D_HTY,0,15,2,0.298261107,1,0,DAN,post,4,3,69
D_HTY,0,16,2,0.417879096,1,1,DAN,post,4,3,69
D_HTY,0,17,2,0.374497848,1,0,DAN,post,4,3,69
D_HTY,0,18,2,0.46309766,1,1,DAN,post,4,3,69
D_HTY,0,1,3,0.299165802,1,0,DAN,post,4,3,69
D_HTY,0,2,3,0.41612221,1,0,DAN,post,4,3,69
D_HTY,0,3,3,0.351487857,1,0,DAN,post,4,3,69
D_HTY,0,4,3,0.370861518,1,0,DAN,post,4,3,69
D_HTY,0,5,3,0.313405954,1,1,DAN,post,4,3,69
D_HTY,0,6,3,0.395143786,1,0,DAN,post,4,3,69
D_HTY,0,7,3,0.294596639,1,1,DAN,post,4,3,69
D_HTY,0,8,3,0.346545763,1,0,DAN,post,4,3,69
D_HTY,0,9,3,0.510567548,1,0,DAN,post,4,3,69
D_HTY,0,10,3,0.372763448,1,0,DAN,post,4,3,69
D_HTY,0,11,3,0.412683444,1,0,DAN,post,4,3,69
D_HTY,0,12,3,0.435101313,1,1,DAN,post,4,3,69
D_HTY,0,13,3,0.269219722,1,0,DAN,post,4,3,69
D_HTY,0,14,3,0.408639416,1,1,DAN,post,4,3,69
D_HTY,0,15,3,0.332138671,1,0,DAN,post,4,3,69
D_HTY,0,16,3,0.33168422,1,1,DAN,post,4,3,69
D_HTY,0,17,3,0.29946183,1,0,DAN,post,4,3,69
D_HTY,0,18,3,0.420420475,1,1,DAN,post,4,3,69
D_HTY,0,1,4,0.34905928,1,0,DAN,post,4,3,69
D_HTY,0,2,4,0.389476104,1,0,DAN,post,4,3,69
D_HTY,0,3,4,0.380292486,1,0,DAN,post,4,3,69
D_HTY,0,4,4,0.34153736,1,0,DAN,post,4,3,69
D_HTY,0,5,4,0.375609783,1,1,DAN,post,4,3,69
D_HTY,0,6,4,0.41201193,1,0,DAN,post,4,3,69
D_HTY,0,7,4,0.373884625,1,1,DAN,post,4,3,69
D_HTY,0,8,4,0.288300265,1,0,DAN,post,4,3,69
D_HTY,0,9,4,0.384050766,1,0,DAN,post,4,3,69
D_HTY,0,10,4,0.463816385,1,0,DAN,post,4,3,69
D_HTY,0,11,4,0.388694034,1,0,DAN,post,4,3,69
D_HTY,0,12,4,0.362172708,0,1,DAN,post,4,3,69
D_HTY,0,13,4,0.372850387,1,0,DAN,post,4,3,69
D_HTY,0,14,4,0.43425086,1,1,DAN,post,4,3,69
D_HTY,0,15,4,0.393755151,1,0,DAN,post,4,3,69
D_HTY,0,16,4,0.424088054,1,1,DAN,post,4,3,69
D_HTY,0,17,4,0.390408286,1,0,DAN,post,4,3,69
D_HTY,0,18,4,0.438834774,1,1,DAN,post,4,3,69
D_HTY,1,1,1,0.386108944,1,0,DAN,post,4,3,69
D_HTY,1,2,1,0.36955595,1,0,DAN,post,4,3,69
D_HTY,1,3,1,0.406652575,1,1,DAN,post,4,3,69
D_HTY,1,4,1,0.27037046,1,0,DAN,post,4,3,69
D_HTY,1,5,1,0.329095972,1,1,DAN,post,4,3,69
D_HTY,1,6,1,0.322379035,1,0,DAN,post,4,3,69
D_HTY,1,7,1,0.367168025,1,0,DAN,post,4,3,69
D_HTY,1,8,1,0.38302755,0,1,DAN,post,4,3,69
D_HTY,1,9,1,0.407636238,1,0,DAN,post,4,3,69
D_HTY,1,10,1,0.588484662,1,0,DAN,post,4,3,69
D_HTY,1,11,1,0.368988557,1,1,DAN,post,4,3,69
D_HTY,1,12,1,0.421929514,1,0,DAN,post,4,3,69
D_HTY,1,13,1,0.427464012,1,0,DAN,post,4,3,69
D_HTY,1,14,1,0.337500534,1,1,DAN,post,4,3,69
D_HTY,1,15,1,0.380913008,1,0,DAN,post,4,3,69
D_HTY,1,16,1,0.472900455,1,1,DAN,post,4,3,69
D_HTY,1,17,1,0.39983788,1,0,DAN,post,4,3,69
D_HTY,1,18,1,0.511173514,1,0,DAN,post,4,3,69
D_HTY,1,1,2,0.30962091,1,0,DAN,post,4,3,69
D_HTY,1,2,2,0.587976747,1,1,DAN,post,4,3,69
D_HTY,1,3,2,0.582714272,1,0,DAN,post,4,3,69
D_HTY,1,4,2,0.768041742,1,0,DAN,post,4,3,69
D_HTY,1,5,2,0.632685395,1,0,DAN,post,4,3,69
D_HTY,1,6,2,0.404377903,1,1,DAN,post,4,3,69
D_HTY,1,7,2,0.25541658,1,0,DAN,post,4,3,69
D_HTY,1,8,2,0.422995588,1,0,DAN,post,4,3,69
D_HTY,1,9,2,0.35282304,1,1,DAN,post,4,3,69
D_HTY,1,10,2,0.28737661,1,0,DAN,post,4,3,69
D_HTY,1,11,2,0.386782635,1,1,DAN,post,4,3,69
D_HTY,1,12,2,0.265031308,1,0,DAN,post,4,3,69
D_HTY,1,13,2,0.579304213,1,0,DAN,post,4,3,69
D_HTY,1,14,2,0.542160012,1,0,DAN,post,4,3,69
D_HTY,1,15,2,0.437318839,1,0,DAN,post,4,3,69
D_HTY,1,16,2,0.436969628,1,1,DAN,post,4,3,69
D_HTY,1,17,2,0.378639695,1,0,DAN,post,4,3,69
D_HTY,1,18,2,0.535445282,1,1,DAN,post,4,3,69
D_HTY,1,1,3,0.459104981,1,0,DAN,post,4,3,69
D_HTY,1,2,3,0.670584631,1,0,DAN,post,4,3,69
D_HTY,1,3,3,0.459243905,1,1,DAN,post,4,3,69
D_HTY,1,4,3,0.281185386,1,0,DAN,post,4,3,69
D_HTY,1,5,3,0.393599356,1,1,DAN,post,4,3,69
D_HTY,1,6,3,0.667026756,1,0,DAN,post,4,3,69
D_HTY,1,7,3,0.423819825,0,1,DAN,post,4,3,69
D_HTY,1,8,3,0.933506343,1,0,DAN,post,4,3,69
D_HTY,1,9,3,0.759931158,1,0,DAN,post,4,3,69
D_HTY,1,10,3,0.582911822,1,0,DAN,post,4,3,69
D_HTY,1,11,3,0.499510883,1,1,DAN,post,4,3,69
D_HTY,1,12,3,1.012336586,1,0,DAN,post,4,3,69
D_HTY,1,13,3,0.900059384,1,0,DAN,post,4,3,69
D_HTY,1,14,3,0.614872109,1,1,DAN,post,4,3,69
D_HTY,1,15,3,0.727800226,1,0,DAN,post,4,3,69
D_HTY,1,16,3,0.397472528,1,0,DAN,post,4,3,69
D_HTY,1,17,3,0.469471752,1,0,DAN,post,4,3,69
D_HTY,1,18,3,0.404202457,1,1,DAN,post,4,3,69
D_HTY,1,1,4,0.51180377,1,0,DAN,post,4,3,69
D_HTY,1,2,4,0.491323325,1,1,DAN,post,4,3,69
D_HTY,1,3,4,0.258488794,1,0,DAN,post,4,3,69
D_HTY,1,4,4,0.472058663,1,0,DAN,post,4,3,69
D_HTY,1,5,4,0.3666478,1,1,DAN,post,4,3,69
D_HTY,1,6,4,0.377560357,1,0,DAN,post,4,3,69
D_HTY,1,7,4,0.421826675,1,1,DAN,post,4,3,69
D_HTY,1,8,4,0.329553092,1,0,DAN,post,4,3,69
D_HTY,1,9,4,0.578196718,1,0,DAN,post,4,3,69
D_HTY,1,10,4,0.473872957,1,1,DAN,post,4,3,69
D_HTY,1,11,4,0.73883429,1,0,DAN,post,4,3,69
D_HTY,1,12,4,0.801752172,1,1,DAN,post,4,3,69
D_HTY,1,13,4,0.573817957,1,0,DAN,post,4,3,69
D_HTY,1,14,4,0.58280587,1,0,DAN,post,4,3,69
D_HTY,1,15,4,0.493072954,1,0,DAN,post,4,3,69
D_HTY,1,16,4,0.567614556,1,0,DAN,post,4,3,69
D_HTY,1,17,4,0.536305737,1,0,DAN,post,4,3,69
D_HTY,1,18,4,0.448788213,1,1,DAN,post,4,3,69
D_HTY,2,1,1,0.341803086,1,0,DAN,post,4,3,69
D_HTY,2,2,1,0.29943913,1,0,DAN,post,4,3,69
D_HTY,2,3,1,0.374651285,1,1,DAN,post,4,3,69
D_HTY,2,4,1,0.68003585,1,0,DAN,post,4,3,69
D_HTY,2,5,1,0.406609655,1,1,DAN,post,4,3,69
D_HTY,2,6,1,0.359129216,1,0,DAN,post,4,3,69
D_HTY,2,7,1,0.720860193,1,0,DAN,post,4,3,69
D_HTY,2,8,1,1.06779743,1,1,DAN,post,4,3,69
D_HTY,2,9,1,0.938187563,1,0,DAN,post,4,3,69
D_HTY,2,10,1,0.794872434,1,0,DAN,post,4,3,69
D_HTY,2,11,1,0.62050479,1,1,DAN,post,4,3,69
D_HTY,2,12,1,0.433633087,1,0,DAN,post,4,3,69
D_HTY,2,13,1,0.427771784,1,1,DAN,post,4,3,69
D_HTY,2,14,1,0.526868525,1,0,DAN,post,4,3,69
D_HTY,2,15,1,1.123234995,1,0,DAN,post,4,3,69
D_HTY,2,16,1,0.617583545,1,0,DAN,post,4,3,69
D_HTY,2,17,1,0.618434006,1,0,DAN,post,4,3,69
D_HTY,2,18,1,0.581971942,1,1,DAN,post,4,3,69
D_HTY,2,1,2,0.330194529,1,0,DAN,post,4,3,69
D_HTY,2,2,2,0.431114736,1,0,DAN,post,4,3,69
D_HTY,2,3,2,0.94938832,1,0,DAN,post,4,3,69
D_HTY,2,4,2,0.638944292,1,1,DAN,post,4,3,69
D_HTY,2,5,2,0.502976744,1,0,DAN,post,4,3,69
D_HTY,2,6,2,1.003292794,1,0,DAN,post,4,3,69
D_HTY,2,7,2,0.54599972,1,1,DAN,post,4,3,69
D_HTY,2,8,2,0.516650375,1,0,DAN,post,4,3,69
D_HTY,2,9,2,0.506418315,1,0,DAN,post,4,3,69
D_HTY,2,10,2,0.397936079,1,1,DAN,post,4,3,69
D_HTY,2,11,2,0.457831071,1,0,DAN,post,4,3,69
D_HTY,2,12,2,0.830445904,1,1,DAN,post,4,3,69
D_HTY,2,13,2,0.626007144,1,0,DAN,post,4,3,69
D_HTY,2,14,2,0.623121152,1,1,DAN,post,4,3,69
D_HTY,2,15,2,1.170696147,1,0,DAN,post,4,3,69
D_HTY,2,16,2,1.150118157,1,0,DAN,post,4,3,69
D_HTY,2,17,2,1.18773479,1,0,DAN,post,4,3,69
D_HTY,2,18,2,0.597485065,1,1,DAN,post,4,3,69
D_HTY,2,1,3,0.337490354,1,0,DAN,post,4,3,69
D_HTY,2,2,3,0.543835708,1,0,DAN,post,4,3,69
D_HTY,2,3,3,0.372889236,1,1,DAN,post,4,3,69
D_HTY,2,4,3,0.755410727,1,0,DAN,post,4,3,69
D_HTY,2,5,3,0.495978131,1,0,DAN,post,4,3,69
D_HTY,2,6,3,0.383614207,1,1,DAN,post,4,3,69
D_HTY,2,7,3,0.440407698,1,0,DAN,post,4,3,69
D_HTY,2,8,3,0.54653446,1,1,DAN,post,4,3,69
D_HTY,2,9,3,0.307785638,1,0,DAN,post,4,3,69
D_HTY,2,10,3,0.465468716,1,0,DAN,post,4,3,69
D_HTY,2,11,3,0.993288123,1,1,DAN,post,4,3,69
D_HTY,2,12,3,0.383614403,1,0,DAN,post,4,3,69
D_HTY,2,13,3,0.45209808,1,0,DAN,post,4,3,69
D_HTY,2,14,3,0.580162832,1,0,DAN,post,4,3,69
D_HTY,2,15,3,0.463993102,1,1,DAN,post,4,3,69
D_HTY,2,16,3,0.825067959,1,0,DAN,post,4,3,69
D_HTY,2,17,3,0.92881115,1,0,DAN,post,4,3,69
D_HTY,2,18,3,0.844868463,1,1,DAN,post,4,3,69
D_HTY,2,1,4,0.362486621,1,0,DAN,post,4,3,69
D_HTY,2,2,4,0.369336182,1,0,DAN,post,4,3,69
D_HTY,2,3,4,0.526770569,1,0,DAN,post,4,3,69
D_HTY,2,4,4,0.3472069,1,1,DAN,post,4,3,69
D_HTY,2,5,4,0.414454432,1,0,DAN,post,4,3,69
D_HTY,2,6,4,0.634906342,1,0,DAN,post,4,3,69
D_HTY,2,7,4,0.771690519,1,1,DAN,post,4,3,69
D_HTY,2,8,4,1.489330348,1,0,DAN,post,4,3,69
D_HTY,2,9,4,1.247346467,1,0,DAN,post,4,3,69
D_HTY,2,10,4,0.617092057,1,1,DAN,post,4,3,69
D_HTY,2,11,4,0.503212343,1,0,DAN,post,4,3,69
D_HTY,2,12,4,0.621068042,1,1,DAN,post,4,3,69
D_HTY,2,13,4,0.482825417,1,0,DAN,post,4,3,69
D_HTY,2,14,4,0.714301297,1,0,DAN,post,4,3,69
D_HTY,2,15,4,0.583648138,1,1,DAN,post,4,3,69
D_HTY,2,16,4,0.430365114,1,0,DAN,post,4,3,69
D_HTY,2,17,4,0.558976455,1,0,DAN,post,4,3,69
D_HTY,2,18,4,0.901806082,1,1,DAN,post,4,3,69
D_HTY,0,1,1,0.44524989199999254,1,0,FPCNB,pre,1,2,14
D_HTY,0,2,1,0.4352845690000322,1,1,FPCNB,pre,1,2,14
D_HTY,0,3,1,0.3722124799996891,1,0,FPCNB,pre,1,2,14
D_HTY,0,4,1,0.6278843499994764,1,0,FPCNB,pre,1,2,14
D_HTY,0,5,1,0.3947446330003004,1,0,FPCNB,pre,1,2,14
D_HTY,0,6,1,0.4524499620001734,1,1,FPCNB,pre,1,2,14
D_HTY,0,7,1,0.4578568999995696,1,0,FPCNB,pre,1,2,14
D_HTY,0,8,1,0.4227531619999354,1,1,FPCNB,pre,1,2,14
D_HTY,0,9,1,0.3133426149997831,1,0,FPCNB,pre,1,2,14
D_HTY,0,10,1,0.4139790819999689,1,1,FPCNB,pre,1,2,14
D_HTY,0,11,1,0.30750122500012367,1,0,FPCNB,pre,1,2,14
D_HTY,0,12,1,0.3792517580004642,1,1,FPCNB,pre,1,2,14
D_HTY,0,13,1,0.4070678099997167,1,0,FPCNB,pre,1,2,14
D_HTY,0,14,1,0.35953171700020903,1,0,FPCNB,pre,1,2,14
D_HTY,0,15,1,0.3940617910002402,1,1,FPCNB,pre,1,2,14
D_HTY,0,16,1,0.40181168600065575,1,0,FPCNB,pre,1,2,14
D_HTY,0,17,1,0.3521424020000268,1,0,FPCNB,pre,1,2,14
D_HTY,0,18,1,0.3700310049998734,1,0,FPCNB,pre,1,2,14
D_HTY,0,1,2,0.44581879200086405,1,0,FPCNB,pre,1,2,14
D_HTY,0,2,2,0.4687811520007017,1,1,FPCNB,pre,1,2,14
D_HTY,0,3,2,0.3812213500004873,1,0,FPCNB,pre,1,2,14
D_HTY,0,4,2,0.37183418099994014,1,0,FPCNB,pre,1,2,14
D_HTY,0,5,2,0.35557255200001237,1,0,FPCNB,pre,1,2,14
D_HTY,0,6,2,0.4700546239992036,1,1,FPCNB,pre,1,2,14
D_HTY,0,7,2,0.48386311500053125,1,0,FPCNB,pre,1,2,14
D_HTY,0,8,2,0.4353660079996189,1,1,FPCNB,pre,1,2,14
D_HTY,0,9,2,0.36423731700051576,1,0,FPCNB,pre,1,2,14
D_HTY,0,10,2,0.4017571519998455,1,1,FPCNB,pre,1,2,14
D_HTY,0,11,2,0.4225765159999355,1,0,FPCNB,pre,1,2,14
D_HTY,0,12,2,0.38606953199996497,1,1,FPCNB,pre,1,2,14
D_HTY,0,13,2,0.4287782479996167,1,0,FPCNB,pre,1,2,14
D_HTY,0,14,2,0.4377427350000289,1,0,FPCNB,pre,1,2,14
D_HTY,0,15,2,0.42481920899990655,1,1,FPCNB,pre,1,2,14
D_HTY,0,16,2,0.4454605900000388,1,0,FPCNB,pre,1,2,14
D_HTY,0,17,2,0.39107399200020154,1,0,FPCNB,pre,1,2,14
D_HTY,0,18,2,0.34984783199979574,1,0,FPCNB,pre,1,2,14
D_HTY,0,1,3,0.3884717130003992,1,0,FPCNB,pre,1,2,14
D_HTY,0,2,3,0.4256254780002564,1,1,FPCNB,pre,1,2,14
D_HTY,0,3,3,0.40931250100038596,1,0,FPCNB,pre,1,2,14
D_HTY,0,4,3,0.3851493269994535,1,0,FPCNB,pre,1,2,14
D_HTY,0,5,3,0.3660062429999016,1,0,FPCNB,pre,1,2,14
D_HTY,0,6,3,0.4455024199996842,1,1,FPCNB,pre,1,2,14
D_HTY,0,7,3,0.7260851549999643,1,0,FPCNB,pre,1,2,14
D_HTY,0,8,3,0.40066368999941915,1,1,FPCNB,pre,1,2,14
D_HTY,0,9,3,0.39244974499979435,1,0,FPCNB,pre,1,2,14
D_HTY,0,10,3,0.45912194199991063,1,1,FPCNB,pre,1,2,14
D_HTY,0,11,3,0.40702296600011323,1,0,FPCNB,pre,1,2,14
D_HTY,0,12,3,0.46376838800006226,1,1,FPCNB,pre,1,2,14
D_HTY,0,13,3,0.4511837150002975,1,0,FPCNB,pre,1,2,14
D_HTY,0,14,3,0.37673012300001574,1,0,FPCNB,pre,1,2,14
D_HTY,0,15,3,0.4341016819998913,1,1,FPCNB,pre,1,2,14
D_HTY,0,16,3,0.39183565500024997,1,0,FPCNB,pre,1,2,14
D_HTY,0,17,3,0.3995578199992451,1,0,FPCNB,pre,1,2,14
D_HTY,0,18,3,0.342248402000223,1,0,FPCNB,pre,1,2,14
D_HTY,0,1,4,0.48722478399940883,1,0,FPCNB,pre,1,2,14
D_HTY,0,2,4,0.43727849799961405,1,1,FPCNB,pre,1,2,14
D_HTY,0,3,4,0.46723681399998895,1,0,FPCNB,pre,1,2,14
D_HTY,0,4,4,0.5710967060003895,1,0,FPCNB,pre,1,2,14
D_HTY,0,5,4,0.3587384689999453,1,0,FPCNB,pre,1,2,14
D_HTY,0,6,4,0.4374071219999678,1,1,FPCNB,pre,1,2,14
D_HTY,0,7,4,0.3769920289996662,1,0,FPCNB,pre,1,2,14
D_HTY,0,8,4,0.44278026600022713,1,1,FPCNB,pre,1,2,14
D_HTY,0,9,4,0.39164801700007956,1,0,FPCNB,pre,1,2,14
D_HTY,0,10,4,0.3174166930002684,1,1,FPCNB,pre,1,2,14
D_HTY,0,11,4,0.4649386500004766,1,0,FPCNB,pre,1,2,14
D_HTY,0,12,4,0.44251801100017474,1,1,FPCNB,pre,1,2,14
D_HTY,0,13,4,0.3911429079998925,1,0,FPCNB,pre,1,2,14
D_HTY,0,14,4,0.36529320999943593,1,0,FPCNB,pre,1,2,14
D_HTY,0,15,4,0.41230004000044573,1,1,FPCNB,pre,1,2,14
D_HTY,0,16,4,0.3955740629999127,1,0,FPCNB,pre,1,2,14
D_HTY,0,17,4,0.3801272640002935,1,0,FPCNB,pre,1,2,14
D_HTY,0,18,4,0.4098211079999601,1,0,FPCNB,pre,1,2,14
D_HTY,1,1,1,0.35337616200013144,1,0,FPCNB,pre,1,2,14
D_HTY,1,2,1,0.5169811799996751,1,1,FPCNB,pre,1,2,14
D_HTY,1,3,1,0.45460688900038804,1,0,FPCNB,pre,1,2,14
D_HTY,1,4,1,0.772270187999311,1,0,FPCNB,pre,1,2,14
D_HTY,1,5,1,0.4239028629999666,1,0,FPCNB,pre,1,2,14
D_HTY,1,6,1,0.3566819839998061,1,1,FPCNB,pre,1,2,14
D_HTY,1,7,1,0.4211312409997845,1,0,FPCNB,pre,1,2,14
D_HTY,1,8,1,0.42492180400040525,1,0,FPCNB,pre,1,2,14
D_HTY,1,9,1,0.7035358060002181,1,1,FPCNB,pre,1,2,14
D_HTY,1,10,1,0.43945408099989436,1,0,FPCNB,pre,1,2,14
D_HTY,1,11,1,0.6561078969998562,1,1,FPCNB,pre,1,2,14
D_HTY,1,12,1,0.42459511300057784,1,0,FPCNB,pre,1,2,14
D_HTY,1,13,1,0.43750453800021205,1,0,FPCNB,pre,1,2,14
D_HTY,1,14,1,0.5870250119996854,1,0,FPCNB,pre,1,2,14
D_HTY,1,15,1,0.8314906349996818,1,0,FPCNB,pre,1,2,14
D_HTY,1,16,1,0.4661090700001296,1,1,FPCNB,pre,1,2,14
D_HTY,1,17,1,0.5014123410001048,1,0,FPCNB,pre,1,2,14
D_HTY,1,18,1,0.6274036539998633,1,1,FPCNB,pre,1,2,14
D_HTY,1,1,2,0.33190847900004883,1,0,FPCNB,pre,1,2,14
D_HTY,1,2,2,0.5366275619999215,1,0,FPCNB,pre,1,2,14
D_HTY,1,3,2,0.43862523500047246,0,1,FPCNB,pre,1,2,14
D_HTY,1,4,2,0.6719532280003477,1,0,FPCNB,pre,1,2,14
D_HTY,1,5,2,0.3613214019997031,1,1,FPCNB,pre,1,2,14
D_HTY,1,6,2,0.6170999280002434,1,0,FPCNB,pre,1,2,14
D_HTY,1,7,2,0.7559749570000349,1,1,FPCNB,pre,1,2,14
D_HTY,1,8,2,0.5544635299993388,1,0,FPCNB,pre,1,2,14
D_HTY,1,9,2,0.4775371739997354,1,0,FPCNB,pre,1,2,14
D_HTY,1,10,2,0.501722793999761,1,0,FPCNB,pre,1,2,14
D_HTY,1,11,2,0.5044512450003822,1,1,FPCNB,pre,1,2,14
D_HTY,1,12,2,0.6832510610001918,1,0,FPCNB,pre,1,2,14
D_HTY,1,13,2,0.4584677080001711,1,0,FPCNB,pre,1,2,14
D_HTY,1,14,2,0.5393951870000819,1,1,FPCNB,pre,1,2,14
D_HTY,1,15,2,0.9484714039999744,1,0,FPCNB,pre,1,2,14
D_HTY,1,16,2,0.7354684949996226,1,0,FPCNB,pre,1,2,14
D_HTY,1,17,2,0.5805868449997433,1,0,FPCNB,pre,1,2,14
D_HTY,1,18,2,0.36857999800031394,1,1,FPCNB,pre,1,2,14
D_HTY,1,1,3,0.31795437300024787,1,0,FPCNB,pre,1,2,14
D_HTY,1,2,3,0.5417700569996668,1,1,FPCNB,pre,1,2,14
D_HTY,1,3,3,1.137233092000315,1,0,FPCNB,pre,1,2,14
D_HTY,1,4,3,0.6088454390001061,1,0,FPCNB,pre,1,2,14
D_HTY,1,5,3,0.5220042210003157,1,1,FPCNB,pre,1,2,14
D_HTY,1,6,3,0.42054947699944023,1,0,FPCNB,pre,1,2,14
D_HTY,1,7,3,0.990026520000356,1,1,FPCNB,pre,1,2,14
D_HTY,1,8,3,0.39372308800011524,1,0,FPCNB,pre,1,2,14
D_HTY,1,9,3,0.5834004920006919,1,0,FPCNB,pre,1,2,14
D_HTY,1,10,3,0.3985491830007959,1,1,FPCNB,pre,1,2,14
D_HTY,1,11,3,0.4668189240001084,1,0,FPCNB,pre,1,2,14
D_HTY,1,12,3,0.4726584339996407,1,1,FPCNB,pre,1,2,14
D_HTY,1,13,3,0.4302746699995623,1,0,FPCNB,pre,1,2,14
D_HTY,1,14,3,0.46190198700060137,1,0,FPCNB,pre,1,2,14
D_HTY,1,15,3,0.6432786120003584,1,0,FPCNB,pre,1,2,14
D_HTY,1,16,3,0.613821301999451,1,0,FPCNB,pre,1,2,14
D_HTY,1,17,3,0.4975268380003399,1,0,FPCNB,pre,1,2,14
D_HTY,1,18,3,0.6009165550003672,1,1,FPCNB,pre,1,2,14
D_HTY,1,1,4,0.5829287220003607,1,0,FPCNB,pre,1,2,14
D_HTY,1,2,4,0.634305083000072,1,0,FPCNB,pre,1,2,14
D_HTY,1,3,4,0.34847604199967464,1,1,FPCNB,pre,1,2,14
D_HTY,1,4,4,0.4068569800001569,1,0,FPCNB,pre,1,2,14
D_HTY,1,5,4,0.3628814359999524,1,1,FPCNB,pre,1,2,14
D_HTY,1,6,4,0.6701794990003691,1,0,FPCNB,pre,1,2,14
D_HTY,1,7,4,0.6468510720005725,1,0,FPCNB,pre,1,2,14
D_HTY,1,8,4,0.5760625080001773,1,1,FPCNB,pre,1,2,14
D_HTY,1,9,4,0.5732845319998887,1,0,FPCNB,pre,1,2,14
D_HTY,1,10,4,0.6197734930001388,1,0,FPCNB,pre,1,2,14
D_HTY,1,11,4,0.5364090319999377,1,1,FPCNB,pre,1,2,14
D_HTY,1,12,4,0.40604037800039805,1,0,FPCNB,pre,1,2,14
D_HTY,1,13,4,0.5288671520002026,1,0,FPCNB,pre,1,2,14
D_HTY,1,14,4,0.4827028199997585,1,1,FPCNB,pre,1,2,14
D_HTY,1,15,4,0.584183775999918,1,0,FPCNB,pre,1,2,14
D_HTY,1,16,4,0.6218564920000063,1,1,FPCNB,pre,1,2,14
D_HTY,1,17,4,0.6616307719996257,1,0,FPCNB,pre,1,2,14
D_HTY,1,18,4,0.8685769379999329,1,0,FPCNB,pre,1,2,14
D_HTY,2,1,1,0.4402648790000967,1,0,FPCNB,pre,1,2,14
D_HTY,2,2,1,0.4245757300004698,1,0,FPCNB,pre,1,2,14
D_HTY,2,3,1,1.15223965199948,1,0,FPCNB,pre,1,2,14
D_HTY,2,4,1,1.3067849340004614,1,1,FPCNB,pre,1,2,14
D_HTY,2,5,1,0.9865251949995582,1,0,FPCNB,pre,1,2,14
D_HTY,2,6,1,0.7235863429996243,1,0,FPCNB,pre,1,2,14
D_HTY,2,7,1,0.5491322230000151,1,1,FPCNB,pre,1,2,14
D_HTY,2,8,1,0.626780843999768,1,0,FPCNB,pre,1,2,14
D_HTY,2,9,1,0.9146636830000716,1,0,FPCNB,pre,1,2,14
D_HTY,2,10,1,0.35281433000000106,1,1,FPCNB,pre,1,2,14
D_HTY,2,11,1,0.4607717139997476,1,0,FPCNB,pre,1,2,14
D_HTY,2,12,1,0.5814875559999564,1,1,FPCNB,pre,1,2,14
D_HTY,2,13,1,1.083075686000484,1,0,FPCNB,pre,1,2,14
D_HTY,2,14,1,0.612741036999978,1,1,FPCNB,pre,1,2,14
D_HTY,2,15,1,0.8291326899998239,1,0,FPCNB,pre,1,2,14
D_HTY,2,16,1,0.6249503219996768,1,0,FPCNB,pre,1,2,14
D_HTY,2,17,1,0.52521274099945,1,0,FPCNB,pre,1,2,14
D_HTY,2,18,1,0.5070189369998843,1,1,FPCNB,pre,1,2,14
D_HTY,2,1,2,0.49136922799971217,1,0,FPCNB,pre,1,2,14
D_HTY,2,2,2,0.603041827999732,1,0,FPCNB,pre,1,2,14
D_HTY,2,3,2,0.44360973999937414,1,1,FPCNB,pre,1,2,14
D_HTY,2,4,2,0.7054311310002959,1,0,FPCNB,pre,1,2,14
D_HTY,2,5,2,1.0768788639998093,1,0,FPCNB,pre,1,2,14
D_HTY,2,6,2,0.9617903500002285,1,1,FPCNB,pre,1,2,14
D_HTY,2,7,2,0.8353107800003272,1,0,FPCNB,pre,1,2,14
D_HTY,2,8,2,0.4759475549999479,1,1,FPCNB,pre,1,2,14
D_HTY,2,9,2,1.0548017350001828,1,0,FPCNB,pre,1,2,14
D_HTY,2,10,2,1.980324469000152,1,0,FPCNB,pre,1,2,14
D_HTY,2,11,2,1.079230001999349,1,1,FPCNB,pre,1,2,14
D_HTY,2,12,2,0.7486928849994001,1,0,FPCNB,pre,1,2,14
D_HTY,2,13,2,0.5567386880002232,1,0,FPCNB,pre,1,2,14
D_HTY,2,14,2,0.52504520399998,1,0,FPCNB,pre,1,2,14
D_HTY,2,15,2,0.6266394920003222,1,1,FPCNB,pre,1,2,14
D_HTY,2,16,2,0.4801188129995353,1,0,FPCNB,pre,1,2,14
D_HTY,2,17,2,0.9657853600001545,1,0,FPCNB,pre,1,2,14
D_HTY,2,18,2,0.340704199999891,1,1,FPCNB,pre,1,2,14
D_HTY,2,1,3,0.4767681180001091,1,0,FPCNB,pre,1,2,14
D_HTY,2,2,3,0.47947848000058,1,0,FPCNB,pre,1,2,14
D_HTY,2,3,3,0.7351363879997734,1,0,FPCNB,pre,1,2,14
D_HTY,2,4,3,0.437148162000085,1,1,FPCNB,pre,1,2,14
D_HTY,2,5,3,1.4780383779998374,1,0,FPCNB,pre,1,2,14
D_HTY,2,6,3,0.8685055850000936,1,0,FPCNB,pre,1,2,14
D_HTY,2,7,3,0.5493730620000861,1,1,FPCNB,pre,1,2,14
D_HTY,2,8,3,1.5170587189995786,1,0,FPCNB,pre,1,2,14
D_HTY,2,9,3,0.9736139779997757,1,0,FPCNB,pre,1,2,14
D_HTY,2,10,3,0.4272479109995402,1,1,FPCNB,pre,1,2,14
D_HTY,2,11,3,0.3880847949994859,1,0,FPCNB,pre,1,2,14
D_HTY,2,12,3,0.5967952600003628,1,1,FPCNB,pre,1,2,14
D_HTY,2,13,3,0.9822727820001091,1,0,FPCNB,pre,1,2,14
D_HTY,2,14,3,0.8428649699999369,1,0,FPCNB,pre,1,2,14
D_HTY,2,15,3,0.44551058700017165,1,1,FPCNB,pre,1,2,14
D_HTY,2,16,3,0.7518602039999678,1,0,FPCNB,pre,1,2,14
D_HTY,2,17,3,0.8244558619999225,1,0,FPCNB,pre,1,2,14
D_HTY,2,18,3,0.6143605529996421,1,1,FPCNB,pre,1,2,14
D_HTY,2,1,4,0.4417166980001639,1,0,FPCNB,pre,1,2,14
D_HTY,2,2,4,0.33830485199996474,1,0,FPCNB,pre,1,2,14
D_HTY,2,3,4,0.7759451729998545,1,1,FPCNB,pre,1,2,14
D_HTY,2,4,4,0.7466574529998979,1,0,FPCNB,pre,1,2,14
D_HTY,2,5,4,0.8164408920001733,1,1,FPCNB,pre,1,2,14
D_HTY,2,6,4,0.540073694000057,1,0,FPCNB,pre,1,2,14
D_HTY,2,7,4,0.9588218039998537,1,0,FPCNB,pre,1,2,14
D_HTY,2,8,4,1.6932316140000694,0,1,FPCNB,pre,1,2,14
D_HTY,2,9,4,1.5582195790002515,1,0,FPCNB,pre,1,2,14
D_HTY,2,10,4,1.0330797440001334,1,0,FPCNB,pre,1,2,14
D_HTY,2,11,4,0.49147805200027506,1,1,FPCNB,pre,1,2,14
D_HTY,2,12,4,0.7030553750000763,1,0,FPCNB,pre,1,2,14
D_HTY,2,13,4,0.79184215999976,1,1,FPCNB,pre,1,2,14
D_HTY,2,14,4,0.920440396000231,1,0,FPCNB,pre,1,2,14
D_HTY,2,15,4,0.890632566000022,1,0,FPCNB,pre,1,2,14
D_HTY,2,16,4,1.736190610000449,1,0,FPCNB,pre,1,2,14
