subject,n_back,trialN,blockN,rt,correct,trialType,stim_site,timepoint,counterbalance,sessionNum,days
D_EMO,0,1,1,0.337325228,1,0,DAN,pre,1,2,7
D_EMO,0,2,1,0.4474412,1,1,DAN,pre,1,2,7
D_EMO,0,3,1,0.308357857,1,0,DAN,pre,1,2,7
D_EMO,0,4,1,0.334941722,1,0,DAN,pre,1,2,7
D_EMO,0,5,1,0.33009539,1,0,DAN,pre,1,2,7
D_EMO,0,6,1,0.41679053,1,1,DAN,pre,1,2,7
D_EMO,0,7,1,0.300187243,1,0,DAN,pre,1,2,7
D_EMO,0,8,1,0.350804952,1,1,DAN,pre,1,2,7
D_EMO,0,9,1,0.290700182,1,0,DAN,pre,1,2,7
D_EMO,0,10,1,0.366239928,1,1,DAN,pre,1,2,7
D_EMO,0,11,1,0.287061137,1,0,DAN,pre,1,2,7
D_EMO,0,12,1,0.412809529,1,1,DAN,pre,1,2,7
D_EMO,0,13,1,0.331276176,1,0,DAN,pre,1,2,7
D_EMO,0,14,1,0.475656539,1,0,DAN,pre,1,2,7
D_EMO,0,15,1,0.342921102,1,1,DAN,pre,1,2,7
D_EMO,0,16,1,0.326467182,1,0,DAN,pre,1,2,7
D_EMO,0,17,1,0.312537834,1,0,DAN,pre,1,2,7
D_EMO,0,18,1,0.309646507,1,0,DAN,pre,1,2,7
D_EMO,0,1,2,0.461707188,1,0,DAN,pre,1,2,7
D_EMO,0,2,2,0.35957291,1,1,DAN,pre,1,2,7
D_EMO,0,3,2,0.331863247,1,0,DAN,pre,1,2,7
D_EMO,0,4,2,0.313994968,1,0,DAN,pre,1,2,7
D_EMO,0,5,2,0.290550718,1,0,DAN,pre,1,2,7
D_EMO,0,6,2,0.30604646,1,1,DAN,pre,1,2,7
D_EMO,0,7,2,0.28582158,1,0,DAN,pre,1,2,7
D_EMO,0,8,2,0.326450477,1,1,DAN,pre,1,2,7
D_EMO,0,9,2,0.26676739,1,0,DAN,pre,1,2,7
D_EMO,0,10,2,0.361703485,1,1,DAN,pre,1,2,7
D_EMO,0,11,2,0.38270273,1,0,DAN,pre,1,2,7
D_EMO,0,12,2,0.417161203,1,1,DAN,pre,1,2,7
D_EMO,0,13,2,0.269192274,1,0,DAN,pre,1,2,7
D_EMO,0,14,2,0.293012128,1,0,DAN,pre,1,2,7
D_EMO,0,15,2,0.492807303,1,1,DAN,pre,1,2,7
D_EMO,0,16,2,0.700541025,1,0,DAN,pre,1,2,7
D_EMO,0,17,2,0.540025976,1,0,DAN,pre,1,2,7
D_EMO,0,18,2,0.309801997,1,0,DAN,pre,1,2,7
D_EMO,0,1,3,0.427097214,1,0,DAN,pre,1,2,7
D_EMO,0,2,3,0.413178726,1,1,DAN,pre,1,2,7
D_EMO,0,3,3,0.483120408,1,0,DAN,pre,1,2,7
D_EMO,0,4,3,0.43306221,1,0,DAN,pre,1,2,7
D_EMO,0,5,3,0.271617013,1,0,DAN,pre,1,2,7
D_EMO,0,7,3,0.317825542,1,0,DAN,pre,1,2,7
D_EMO,0,8,3,0.273553705,1,1,DAN,pre,1,2,7
D_EMO,0,9,3,0.255469145,1,0,DAN,pre,1,2,7
D_EMO,0,10,3,0.416775788,1,1,DAN,pre,1,2,7
D_EMO,0,11,3,0.244511894,1,0,DAN,pre,1,2,7
D_EMO,0,12,3,0.37622706,1,1,DAN,pre,1,2,7
D_EMO,0,13,3,0.28655164,1,0,DAN,pre,1,2,7
D_EMO,0,14,3,0.40025766,1,0,DAN,pre,1,2,7
D_EMO,0,15,3,0.312723742,1,1,DAN,pre,1,2,7
D_EMO,0,16,3,0.270167268,1,0,DAN,pre,1,2,7
D_EMO,0,17,3,0.26902196,1,0,DAN,pre,1,2,7
D_EMO,0,18,3,0.310555097,1,0,DAN,pre,1,2,7
D_EMO,0,1,4,0.35978179,1,0,DAN,pre,1,2,7
D_EMO,0,2,4,0.3606103,1,1,DAN,pre,1,2,7
D_EMO,0,3,4,0.226205552,1,0,DAN,pre,1,2,7
D_EMO,0,4,4,0.34091634,1,0,DAN,pre,1,2,7
D_EMO,0,5,4,0.3137707,1,0,DAN,pre,1,2,7
D_EMO,0,6,4,0.357307197,1,1,DAN,pre,1,2,7
D_EMO,0,7,4,0.26495436,1,0,DAN,pre,1,2,7
D_EMO,0,8,4,0.357603206,1,1,DAN,pre,1,2,7
D_EMO,0,9,4,0.289248463,1,0,DAN,pre,1,2,7
D_EMO,0,10,4,0.370929579,1,1,DAN,pre,1,2,7
D_EMO,0,11,4,0.287568884,1,0,DAN,pre,1,2,7
D_EMO,0,12,4,0.291310628,1,1,DAN,pre,1,2,7
D_EMO,0,13,4,0.280050733,1,0,DAN,pre,1,2,7
D_EMO,0,14,4,0.298336692,1,0,DAN,pre,1,2,7
D_EMO,0,15,4,0.473913475,1,1,DAN,pre,1,2,7
D_EMO,0,16,4,0.319352696,1,0,DAN,pre,1,2,7
D_EMO,0,17,4,0.286217392,1,0,DAN,pre,1,2,7
D_EMO,0,18,4,0.27299311,1,0,DAN,pre,1,2,7
D_EMO,1,1,1,0.352393275,1,0,DAN,pre,1,2,7
D_EMO,1,2,1,0.459357054,1,1,DAN,pre,1,2,7
D_EMO,1,3,1,0.342449596,1,0,DAN,pre,1,2,7
D_EMO,1,4,1,0.312476318,1,0,DAN,pre,1,2,7
D_EMO,1,5,1,0.311827902,1,0,DAN,pre,1,2,7
D_EMO,1,6,1,0.560671375,1,1,DAN,pre,1,2,7
D_EMO,1,7,1,0.39411654,1,0,DAN,pre,1,2,7
D_EMO,1,8,1,0.343985277,1,0,DAN,pre,1,2,7
D_EMO,1,9,1,0.357761275,1,1,DAN,pre,1,2,7
D_EMO,1,10,1,0.288475968,1,0,DAN,pre,1,2,7
D_EMO,1,11,1,0.242069502,1,1,DAN,pre,1,2,7
D_EMO,1,12,1,0.317499597,1,0,DAN,pre,1,2,7
D_EMO,1,13,1,0.268892095,1,0,DAN,pre,1,2,7
D_EMO,1,14,1,0.2701207,1,0,DAN,pre,1,2,7
D_EMO,1,15,1,0.394404994,1,0,DAN,pre,1,2,7
D_EMO,1,17,1,0.516731222,1,0,DAN,pre,1,2,7
D_EMO,1,18,1,0.471466212,1,1,DAN,pre,1,2,7
D_EMO,1,1,2,0.238831923,1,0,DAN,pre,1,2,7
D_EMO,1,2,2,0.43289664,1,0,DAN,pre,1,2,7
D_EMO,1,3,2,0.526162302,1,1,DAN,pre,1,2,7
D_EMO,1,4,2,0.326341431,1,0,DAN,pre,1,2,7
D_EMO,1,5,2,0.368535116,1,1,DAN,pre,1,2,7
D_EMO,1,6,2,0.31616601,1,0,DAN,pre,1,2,7
D_EMO,1,7,2,0.290042948,1,1,DAN,pre,1,2,7
D_EMO,1,8,2,0.410841005,1,0,DAN,pre,1,2,7
D_EMO,1,9,2,0.444405745,1,0,DAN,pre,1,2,7
D_EMO,1,10,2,0.414502747,1,0,DAN,pre,1,2,7
D_EMO,1,11,2,0.270811965,1,1,DAN,pre,1,2,7
D_EMO,1,12,2,0.302149886,1,0,DAN,pre,1,2,7
D_EMO,1,13,2,0.360808893,1,0,DAN,pre,1,2,7
D_EMO,1,14,2,0.346328648,1,1,DAN,pre,1,2,7
D_EMO,1,15,2,0.298379255,1,0,DAN,pre,1,2,7
D_EMO,1,17,2,0.361356478,1,0,DAN,pre,1,2,7
D_EMO,1,18,2,0.603955702,1,1,DAN,pre,1,2,7
D_EMO,1,1,3,0.60686747,1,0,DAN,pre,1,2,7
D_EMO,1,2,3,0.32742666,1,1,DAN,pre,1,2,7
D_EMO,1,3,3,0.889796104,1,0,DAN,pre,1,2,7
D_EMO,1,4,3,0.554279002,1,0,DAN,pre,1,2,7
D_EMO,1,5,3,0.400915494,1,1,DAN,pre,1,2,7
D_EMO,1,6,3,0.297059936,1,0,DAN,pre,1,2,7
D_EMO,1,7,3,0.318237013,1,1,DAN,pre,1,2,7
D_EMO,1,8,3,0.368696165,1,0,DAN,pre,1,2,7
D_EMO,1,9,3,0.359670963,1,0,DAN,pre,1,2,7
D_EMO,1,13,3,0.486014229,1,0,DAN,pre,1,2,7
D_EMO,1,14,3,0.387073135,1,0,DAN,pre,1,2,7
D_EMO,1,15,3,0.34940528,1,0,DAN,pre,1,2,7
D_EMO,1,16,3,0.45873011,1,0,DAN,pre,1,2,7
D_EMO,1,17,3,0.471381037,1,0,DAN,pre,1,2,7
D_EMO,1,18,3,0.310425632,1,1,DAN,pre,1,2,7
D_EMO,1,2,4,0.357963638,1,0,DAN,pre,1,2,7
D_EMO,1,4,4,0.41889668,1,0,DAN,pre,1,2,7
D_EMO,1,5,4,0.317708324,1,1,DAN,pre,1,2,7
D_EMO,1,6,4,0.346451344,1,0,DAN,pre,1,2,7
D_EMO,1,7,4,0.319916234,1,0,DAN,pre,1,2,7
D_EMO,1,8,4,0.34348591,1,1,DAN,pre,1,2,7
D_EMO,1,9,4,0.492515452,1,0,DAN,pre,1,2,7
D_EMO,1,10,4,0.409107773,1,0,DAN,pre,1,2,7
D_EMO,1,11,4,0.307770386,1,1,DAN,pre,1,2,7
D_EMO,1,12,4,0.270428655,1,0,DAN,pre,1,2,7
D_EMO,1,13,4,0.33883707,1,0,DAN,pre,1,2,7
D_EMO,1,15,4,0.72305102,1,0,DAN,pre,1,2,7
D_EMO,1,16,4,0.487691261,1,1,DAN,pre,1,2,7
D_EMO,1,17,4,0.317705105,1,0,DAN,pre,1,2,7
D_EMO,1,18,4,0.306182458,1,0,DAN,pre,1,2,7
D_EMO,2,1,1,0.74021074,1,0,DAN,pre,1,2,7
D_EMO,2,2,1,0.306926558,1,0,DAN,pre,1,2,7
D_EMO,2,3,1,0.362562567,1,0,DAN,pre,1,2,7
D_EMO,2,4,1,0.289105203,1,1,DAN,pre,1,2,7
D_EMO,2,5,1,0.328864999,1,0,DAN,pre,1,2,7
D_EMO,2,6,1,0.377243591,1,0,DAN,pre,1,2,7
D_EMO,2,8,1,0.479724382,1,0,DAN,pre,1,2,7
D_EMO,2,9,1,0.467205342,1,0,DAN,pre,1,2,7
D_EMO,2,10,1,0.36510262,1,1,DAN,pre,1,2,7
D_EMO,2,11,1,0.375707722,1,0,DAN,pre,1,2,7
D_EMO,2,14,1,0.803685622,1,1,DAN,pre,1,2,7
D_EMO,2,15,1,0.581392016,1,0,DAN,pre,1,2,7
D_EMO,2,16,1,0.37383094,1,0,DAN,pre,1,2,7
D_EMO,2,17,1,0.553355083,1,0,DAN,pre,1,2,7
D_EMO,2,18,1,0.532280192,1,1,DAN,pre,1,2,7
D_EMO,2,1,2,0.829019853,1,0,DAN,pre,1,2,7
D_EMO,2,2,2,0.668477026,1,0,DAN,pre,1,2,7
D_EMO,2,3,2,0.349468517,1,1,DAN,pre,1,2,7
D_EMO,2,4,2,0.404860603,1,0,DAN,pre,1,2,7
D_EMO,2,5,2,0.620919214,1,0,DAN,pre,1,2,7
D_EMO,2,6,2,0.48407562,1,1,DAN,pre,1,2,7
D_EMO,2,7,2,0.332137927,1,0,DAN,pre,1,2,7
D_EMO,2,8,2,0.634393836,1,1,DAN,pre,1,2,7
D_EMO,2,9,2,0.896162392,1,0,DAN,pre,1,2,7
D_EMO,2,10,2,0.61874655,1,0,DAN,pre,1,2,7
D_EMO,2,11,2,0.376508668,1,1,DAN,pre,1,2,7
D_EMO,2,12,2,0.3542441,1,0,DAN,pre,1,2,7
D_EMO,2,13,2,0.640795748,1,0,DAN,pre,1,2,7
D_EMO,2,14,2,0.404624306,1,0,DAN,pre,1,2,7
D_EMO,2,15,2,0.695978777,1,1,DAN,pre,1,2,7
D_EMO,2,16,2,0.556889028,1,0,DAN,pre,1,2,7
D_EMO,2,17,2,0.37228728,1,0,DAN,pre,1,2,7
D_EMO,2,18,2,0.58353837,1,1,DAN,pre,1,2,7
D_EMO,2,1,3,0.25665654,1,0,DAN,pre,1,2,7
D_EMO,2,2,3,0.455290306,1,0,DAN,pre,1,2,7
D_EMO,2,3,3,0.341079227,1,0,DAN,pre,1,2,7
D_EMO,2,4,3,0.64257792,1,1,DAN,pre,1,2,7
D_EMO,2,5,3,0.332775388,1,0,DAN,pre,1,2,7
D_EMO,2,6,3,0.589000504,1,0,DAN,pre,1,2,7
D_EMO,2,7,3,0.682444475,1,1,DAN,pre,1,2,7
D_EMO,2,8,3,0.57988766,1,0,DAN,pre,1,2,7
D_EMO,2,10,3,0.701245788,1,1,DAN,pre,1,2,7
D_EMO,2,11,3,0.487691669,1,0,DAN,pre,1,2,7
D_EMO,2,12,3,0.885174715,1,1,DAN,pre,1,2,7
D_EMO,2,13,3,0.61964361,1,0,DAN,pre,1,2,7
D_EMO,2,15,3,0.695168722,1,1,DAN,pre,1,2,7
D_EMO,2,16,3,0.665995448,1,0,DAN,pre,1,2,7
D_EMO,2,18,3,0.64302359,1,1,DAN,pre,1,2,7
D_EMO,2,3,4,0.659563494,1,1,DAN,pre,1,2,7
D_EMO,2,4,4,0.501342819,1,0,DAN,pre,1,2,7
D_EMO,2,5,4,0.52476786,1,1,DAN,pre,1,2,7
D_EMO,2,6,4,0.33644369,1,0,DAN,pre,1,2,7
D_EMO,2,7,4,0.529349235,1,0,DAN,pre,1,2,7
D_EMO,2,8,4,0.410745938,1,1,DAN,pre,1,2,7
D_EMO,2,9,4,0.339712166,1,0,DAN,pre,1,2,7
D_EMO,2,12,4,0.43659225,1,0,DAN,pre,1,2,7
D_EMO,2,13,4,0.53418364,1,1,DAN,pre,1,2,7
D_EMO,2,14,4,0.425695035,1,0,DAN,pre,1,2,7
D_EMO,2,16,4,0.585268352,1,0,DAN,pre,1,2,7
D_EMO,2,17,4,0.38517743,1,0,DAN,pre,1,2,7
D_EMO,2,18,4,0.630413352,1,1,DAN,pre,1,2,7
D_EMO,0,1,1,0.311711673,1,0,DAN,post,4,2,7
D_EMO,0,2,1,0.253225524,1,0,DAN,post,4,2,7
D_EMO,0,3,1,0.309625355,1,0,DAN,post,4,2,7
D_EMO,0,4,1,0.285262972,1,0,DAN,post,4,2,7
D_EMO,0,5,1,0.414481094,1,1,DAN,post,4,2,7
D_EMO,0,6,1,0.285857731,1,0,DAN,post,4,2,7
D_EMO,0,8,1,0.28093199,1,0,DAN,post,4,2,7
D_EMO,0,9,1,0.311354538,1,0,DAN,post,4,2,7
D_EMO,0,10,1,0.272966904,1,0,DAN,post,4,2,7
D_EMO,0,11,1,0.274083838,1,0,DAN,post,4,2,7
D_EMO,0,12,1,0.36258074,1,1,DAN,post,4,2,7
D_EMO,0,13,1,0.211204277,1,0,DAN,post,4,2,7
D_EMO,0,14,1,0.344596413,1,1,DAN,post,4,2,7
D_EMO,0,15,1,0.220356823,1,0,DAN,post,4,2,7
D_EMO,0,16,1,0.31487847,1,1,DAN,post,4,2,7
D_EMO,0,17,1,0.267032483,1,0,DAN,post,4,2,7
D_EMO,0,18,1,0.361925056,1,1,DAN,post,4,2,7
D_EMO,0,1,2,0.439033549,1,0,DAN,post,4,2,7
D_EMO,0,2,2,0.246511903,1,0,DAN,post,4,2,7
D_EMO,0,3,2,0.304947353,1,0,DAN,post,4,2,7
D_EMO,0,4,2,0.338694647,1,0,DAN,post,4,2,7
D_EMO,0,5,2,0.3903088,1,1,DAN,post,4,2,7
D_EMO,0,6,2,0.275898438,1,0,DAN,post,4,2,7
D_EMO,0,7,2,0.28263661,1,1,DAN,post,4,2,7
D_EMO,0,8,2,0.210274632,1,0,DAN,post,4,2,7
D_EMO,0,9,2,0.255909338,1,0,DAN,post,4,2,7
D_EMO,0,10,2,0.234434327,1,0,DAN,post,4,2,7
D_EMO,0,11,2,0.248488262,1,0,DAN,post,4,2,7
D_EMO,0,12,2,0.322911103,1,1,DAN,post,4,2,7
D_EMO,0,13,2,0.233418212,1,0,DAN,post,4,2,7
D_EMO,0,14,2,0.37416064,1,1,DAN,post,4,2,7
D_EMO,0,15,2,0.232972858,1,0,DAN,post,4,2,7
D_EMO,0,16,2,0.406346455,1,1,DAN,post,4,2,7
D_EMO,0,17,2,0.216942524,1,0,DAN,post,4,2,7
D_EMO,0,18,2,0.333614402,1,1,DAN,post,4,2,7
D_EMO,0,1,3,0.490738737,1,0,DAN,post,4,2,7
D_EMO,0,2,3,0.292071004,1,0,DAN,post,4,2,7
D_EMO,0,3,3,0.328855415,1,0,DAN,post,4,2,7
D_EMO,0,4,3,0.291379865,1,0,DAN,post,4,2,7
D_EMO,0,5,3,0.434004172,1,1,DAN,post,4,2,7
D_EMO,0,6,3,0.231118138,1,0,DAN,post,4,2,7
D_EMO,0,7,3,0.296602615,1,1,DAN,post,4,2,7
D_EMO,0,8,3,0.25097843,1,0,DAN,post,4,2,7
D_EMO,0,9,3,0.246990647,1,0,DAN,post,4,2,7
D_EMO,0,10,3,0.23565207,1,0,DAN,post,4,2,7
D_EMO,0,13,3,0.257272648,1,0,DAN,post,4,2,7
D_EMO,0,14,3,0.36098424,1,1,DAN,post,4,2,7
D_EMO,0,15,3,0.243179554,1,0,DAN,post,4,2,7
D_EMO,0,16,3,0.297220228,1,1,DAN,post,4,2,7
D_EMO,0,17,3,0.251363358,1,0,DAN,post,4,2,7
D_EMO,0,1,4,0.27194194,1,0,DAN,post,4,2,7
D_EMO,0,2,4,0.285487175,1,0,DAN,post,4,2,7
D_EMO,0,3,4,0.265706592,1,0,DAN,post,4,2,7
D_EMO,0,4,4,0.36798116,1,0,DAN,post,4,2,7
D_EMO,0,6,4,0.272398826,1,0,DAN,post,4,2,7
D_EMO,0,7,4,0.419323628,1,1,DAN,post,4,2,7
D_EMO,0,8,4,0.261812704,1,0,DAN,post,4,2,7
D_EMO,0,9,4,0.308403914,1,0,DAN,post,4,2,7
D_EMO,0,10,4,0.311236372,1,0,DAN,post,4,2,7
D_EMO,0,11,4,0.301689994,1,0,DAN,post,4,2,7
D_EMO,0,12,4,0.33634438,1,1,DAN,post,4,2,7
D_EMO,0,13,4,0.280327282,1,0,DAN,post,4,2,7
D_EMO,0,14,4,0.358855008,1,1,DAN,post,4,2,7
D_EMO,0,15,4,0.230216638,1,0,DAN,post,4,2,7
D_EMO,0,16,4,0.345857428,1,1,DAN,post,4,2,7
D_EMO,0,17,4,0.244432866,1,0,DAN,post,4,2,7
D_EMO,0,18,4,0.422174734,1,1,DAN,post,4,2,7
D_EMO,1,1,1,0.337704874,1,0,DAN,post,4,2,7
D_EMO,1,2,1,0.319829675,1,0,DAN,post,4,2,7
D_EMO,1,3,1,0.32766061,1,1,DAN,post,4,2,7
D_EMO,1,4,1,0.26395274,1,0,DAN,post,4,2,7
D_EMO,1,5,1,0.308852968,1,1,DAN,post,4,2,7
D_EMO,1,6,1,0.319567806,1,0,DAN,post,4,2,7
D_EMO,1,7,1,0.34432711,1,0,DAN,post,4,2,7
D_EMO,1,9,1,0.408874675,1,0,DAN,post,4,2,7
D_EMO,1,10,1,0.636308284,1,0,DAN,post,4,2,7
D_EMO,1,11,1,0.39397434,1,1,DAN,post,4,2,7
D_EMO,1,12,1,0.512793032,1,0,DAN,post,4,2,7
D_EMO,1,13,1,0.47910856,1,0,DAN,post,4,2,7
D_EMO,1,14,1,0.296136793,1,1,DAN,post,4,2,7
D_EMO,1,15,1,0.306102826,1,0,DAN,post,4,2,7
D_EMO,1,16,1,0.41417458,1,1,DAN,post,4,2,7
D_EMO,1,17,1,0.592435048,1,0,DAN,post,4,2,7
D_EMO,1,18,1,0.42095566,1,0,DAN,post,4,2,7
D_EMO,1,1,2,0.245052797,1,0,DAN,post,4,2,7
D_EMO,1,3,2,0.385421573,1,0,DAN,post,4,2,7
D_EMO,1,4,2,0.360000294,1,0,DAN,post,4,2,7
D_EMO,1,5,2,0.384763066,1,0,DAN,post,4,2,7
D_EMO,1,6,2,0.575298864,1,1,DAN,post,4,2,7
D_EMO,1,7,2,0.343199572,1,0,DAN,post,4,2,7
D_EMO,1,8,2,0.356828129,1,0,DAN,post,4,2,7
D_EMO,1,10,2,0.568165287,1,0,DAN,post,4,2,7
D_EMO,1,11,2,0.379891775,1,1,DAN,post,4,2,7
D_EMO,1,12,2,0.536507217,1,0,DAN,post,4,2,7
D_EMO,1,13,2,0.33794556,1,0,DAN,post,4,2,7
D_EMO,1,15,2,0.432273823,1,0,DAN,post,4,2,7
D_EMO,1,16,2,0.299480736,1,1,DAN,post,4,2,7
D_EMO,1,17,2,0.456373975,1,0,DAN,post,4,2,7
D_EMO,1,18,2,0.417240475,1,1,DAN,post,4,2,7
D_EMO,1,1,3,0.899050298,1,0,DAN,post,4,2,7
D_EMO,1,2,3,0.384362864,1,0,DAN,post,4,2,7
D_EMO,1,4,3,0.74407827,1,0,DAN,post,4,2,7
D_EMO,1,5,3,0.410579478,1,1,DAN,post,4,2,7
D_EMO,1,6,3,0.34109223,1,0,DAN,post,4,2,7
D_EMO,1,7,3,0.42778203,1,1,DAN,post,4,2,7
D_EMO,1,8,3,0.309501169,1,0,DAN,post,4,2,7
D_EMO,1,9,3,0.324319503,1,0,DAN,post,4,2,7
D_EMO,1,10,3,0.382166386,1,0,DAN,post,4,2,7
D_EMO,1,11,3,0.34076246,1,1,DAN,post,4,2,7
D_EMO,1,12,3,0.54867765,1,0,DAN,post,4,2,7
D_EMO,1,13,3,0.34828314,1,0,DAN,post,4,2,7
D_EMO,1,15,3,0.4878403,1,0,DAN,post,4,2,7
D_EMO,1,16,3,0.393290912,1,0,DAN,post,4,2,7
D_EMO,1,17,3,0.33907327,1,0,DAN,post,4,2,7
D_EMO,1,18,3,0.43200487,1,1,DAN,post,4,2,7
D_EMO,1,1,4,0.679877402,1,0,DAN,post,4,2,7
D_EMO,1,3,4,0.365148243,1,0,DAN,post,4,2,7
D_EMO,1,4,4,0.327834462,1,0,DAN,post,4,2,7
D_EMO,1,5,4,0.44445879,1,1,DAN,post,4,2,7
D_EMO,1,6,4,0.326319352,1,0,DAN,post,4,2,7
D_EMO,1,7,4,0.453689967,1,1,DAN,post,4,2,7
D_EMO,1,8,4,0.473678099,1,0,DAN,post,4,2,7
D_EMO,1,9,4,0.495028852,1,0,DAN,post,4,2,7
D_EMO,1,10,4,0.456190663,1,1,DAN,post,4,2,7
D_EMO,1,11,4,0.40752139,1,0,DAN,post,4,2,7
D_EMO,1,12,4,0.305307364,1,1,DAN,post,4,2,7
D_EMO,1,13,4,0.260848498,1,0,DAN,post,4,2,7
D_EMO,1,14,4,0.389536744,1,0,DAN,post,4,2,7
D_EMO,1,16,4,0.463755247,1,0,DAN,post,4,2,7
D_EMO,1,17,4,0.480272248,1,0,DAN,post,4,2,7
D_EMO,1,18,4,0.26302668,1,1,DAN,post,4,2,7
D_EMO,2,1,1,0.248088294,1,0,DAN,post,4,2,7
D_EMO,2,2,1,0.27500917,1,0,DAN,post,4,2,7
D_EMO,2,4,1,0.527951672,1,0,DAN,post,4,2,7
D_EMO,2,5,1,0.48189412,1,1,DAN,post,4,2,7
D_EMO,2,6,1,0.616410487,1,0,DAN,post,4,2,7
D_EMO,2,9,1,0.642217856,1,0,DAN,post,4,2,7
D_EMO,2,10,1,0.670957466,1,0,DAN,post,4,2,7
D_EMO,2,11,1,0.5835082,1,1,DAN,post,4,2,7
D_EMO,2,12,1,0.856439592,1,0,DAN,post,4,2,7
D_EMO,2,13,1,0.331730145,1,1,DAN,post,4,2,7
D_EMO,2,14,1,0.470392255,1,0,DAN,post,4,2,7
D_EMO,2,15,1,0.491853724,1,0,DAN,post,4,2,7
D_EMO,2,16,1,0.940859667,1,0,DAN,post,4,2,7
D_EMO,2,17,1,0.673408457,1,0,DAN,post,4,2,7
D_EMO,2,18,1,0.668116509,1,1,DAN,post,4,2,7
D_EMO,2,1,2,0.279793117,1,0,DAN,post,4,2,7
D_EMO,2,2,2,0.418234218,1,0,DAN,post,4,2,7
D_EMO,2,3,2,0.598157536,1,0,DAN,post,4,2,7
D_EMO,2,4,2,0.69352285,1,1,DAN,post,4,2,7
D_EMO,2,5,2,0.559263711,1,0,DAN,post,4,2,7
D_EMO,2,6,2,0.485822166,1,0,DAN,post,4,2,7
D_EMO,2,7,2,0.353965902,1,1,DAN,post,4,2,7
D_EMO,2,8,2,0.678411365,1,0,DAN,post,4,2,7
D_EMO,2,9,2,0.74095144,1,0,DAN,post,4,2,7
D_EMO,2,10,2,0.682759387,1,1,DAN,post,4,2,7
D_EMO,2,11,2,0.56033921,1,0,DAN,post,4,2,7
D_EMO,2,12,2,0.622091748,1,1,DAN,post,4,2,7
D_EMO,2,13,2,0.646062875,1,0,DAN,post,4,2,7
D_EMO,2,14,2,0.827274857,1,1,DAN,post,4,2,7
D_EMO,2,15,2,0.583062772,1,0,DAN,post,4,2,7
D_EMO,2,16,2,0.56059412,1,0,DAN,post,4,2,7
D_EMO,2,17,2,0.56772984,1,0,DAN,post,4,2,7
D_EMO,2,18,2,0.932870667,1,1,DAN,post,4,2,7
D_EMO,2,1,3,0.786071319,1,0,DAN,post,4,2,7
D_EMO,2,2,3,0.653884064,1,0,DAN,post,4,2,7
D_EMO,2,3,3,0.373579125,1,1,DAN,post,4,2,7
D_EMO,2,4,3,0.522220146,1,0,DAN,post,4,2,7
D_EMO,2,5,3,0.335808356,1,0,DAN,post,4,2,7
D_EMO,2,7,3,0.466264222,1,0,DAN,post,4,2,7
D_EMO,2,8,3,0.475945248,1,1,DAN,post,4,2,7
D_EMO,2,9,3,0.306530647,1,0,DAN,post,4,2,7
D_EMO,2,10,3,0.3531644,1,0,DAN,post,4,2,7
D_EMO,2,11,3,0.297801549,1,1,DAN,post,4,2,7
D_EMO,2,12,3,0.31362485,1,0,DAN,post,4,2,7
D_EMO,2,13,3,0.3849939,1,0,DAN,post,4,2,7
D_EMO,2,14,3,0.426795824,1,0,DAN,post,4,2,7
D_EMO,2,15,3,0.55104254,1,1,DAN,post,4,2,7
D_EMO,2,16,3,0.349949447,1,0,DAN,post,4,2,7
D_EMO,2,17,3,0.478707374,1,0,DAN,post,4,2,7
D_EMO,2,18,3,0.424406848,1,1,DAN,post,4,2,7
D_EMO,2,1,4,0.41105645,1,0,DAN,post,4,2,7
D_EMO,2,2,4,0.304925548,1,0,DAN,post,4,2,7
D_EMO,2,3,4,0.40586877,1,0,DAN,post,4,2,7
D_EMO,2,4,4,0.588374222,1,1,DAN,post,4,2,7
D_EMO,2,5,4,0.405842868,1,0,DAN,post,4,2,7
D_EMO,2,6,4,0.449654506,1,0,DAN,post,4,2,7
D_EMO,2,7,4,0.623377782,1,1,DAN,post,4,2,7
D_EMO,2,8,4,0.59822557,1,0,DAN,post,4,2,7
D_EMO,2,9,4,0.570659543,1,0,DAN,post,4,2,7
D_EMO,2,10,4,0.621141491,1,1,DAN,post,4,2,7
D_EMO,2,11,4,0.472768369,1,0,DAN,post,4,2,7
D_EMO,2,12,4,0.50873184,1,1,DAN,post,4,2,7
D_EMO,2,13,4,0.590800623,1,0,DAN,post,4,2,7
D_EMO,2,14,4,0.634772445,1,0,DAN,post,4,2,7
D_EMO,2,15,4,0.543004738,1,1,DAN,post,4,2,7
D_EMO,2,17,4,0.406553875,1,0,DAN,post,4,2,7
D_EMO,2,18,4,0.487229229,1,1,DAN,post,4,2,7
D_EMO,0,1,1,0.53449547,1,1,FPCNB,pre,6,3,14
D_EMO,0,2,1,0.29500124,1,0,FPCNB,pre,6,3,14
D_EMO,0,3,1,0.33810549,1,1,FPCNB,pre,6,3,14
D_EMO,0,4,1,0.279910885,1,0,FPCNB,pre,6,3,14
D_EMO,0,5,1,0.295243087,1,0,FPCNB,pre,6,3,14
D_EMO,0,6,1,0.369012394,1,1,FPCNB,pre,6,3,14
D_EMO,0,7,1,0.267592274,1,0,FPCNB,pre,6,3,14
D_EMO,0,8,1,0.346293436,1,0,FPCNB,pre,6,3,14
D_EMO,0,9,1,0.35605997,1,1,FPCNB,pre,6,3,14
D_EMO,0,10,1,0.243330074,1,0,FPCNB,pre,6,3,14
D_EMO,0,11,1,0.332253622,1,0,FPCNB,pre,6,3,14
D_EMO,0,12,1,0.273060243,1,0,FPCNB,pre,6,3,14
D_EMO,0,13,1,0.25191476,1,0,FPCNB,pre,6,3,14
D_EMO,0,14,1,0.302255522,1,0,FPCNB,pre,6,3,14
D_EMO,0,15,1,0.278713154,1,0,FPCNB,pre,6,3,14
D_EMO,0,16,1,0.296481098,1,1,FPCNB,pre,6,3,14
D_EMO,0,18,1,0.318675635,1,1,FPCNB,pre,6,3,14
D_EMO,0,1,2,0.418229588,1,1,FPCNB,pre,6,3,14
D_EMO,0,2,2,0.238096721,1,0,FPCNB,pre,6,3,14
D_EMO,0,3,2,0.278740292,1,1,FPCNB,pre,6,3,14
D_EMO,0,4,2,0.272455028,1,0,FPCNB,pre,6,3,14
D_EMO,0,5,2,0.244885383,1,0,FPCNB,pre,6,3,14
D_EMO,0,6,2,0.367471718,1,1,FPCNB,pre,6,3,14
D_EMO,0,7,2,0.245948882,1,0,FPCNB,pre,6,3,14
D_EMO,0,8,2,0.284882314,1,0,FPCNB,pre,6,3,14
D_EMO,0,9,2,0.288739967,1,1,FPCNB,pre,6,3,14
D_EMO,0,10,2,0.257106015,1,0,FPCNB,pre,6,3,14
D_EMO,0,11,2,0.302958281,1,0,FPCNB,pre,6,3,14
D_EMO,0,12,2,0.278193084,1,0,FPCNB,pre,6,3,14
D_EMO,0,13,2,0.28334643,1,0,FPCNB,pre,6,3,14
D_EMO,0,14,2,0.330238385,1,0,FPCNB,pre,6,3,14
D_EMO,0,15,2,0.25038734,1,0,FPCNB,pre,6,3,14
D_EMO,0,16,2,0.32903709,1,1,FPCNB,pre,6,3,14
D_EMO,0,17,2,0.241343057,1,0,FPCNB,pre,6,3,14
D_EMO,0,18,2,0.360226833,1,1,FPCNB,pre,6,3,14
D_EMO,0,1,3,0.440795458,1,1,FPCNB,pre,6,3,14
D_EMO,0,2,3,0.2669923,1,0,FPCNB,pre,6,3,14
D_EMO,0,3,3,0.44261452,1,1,FPCNB,pre,6,3,14
D_EMO,0,4,3,0.256347938,1,0,FPCNB,pre,6,3,14
D_EMO,0,6,3,0.343498887,1,1,FPCNB,pre,6,3,14
D_EMO,0,7,3,0.268114237,1,0,FPCNB,pre,6,3,14
D_EMO,0,8,3,0.278524057,1,0,FPCNB,pre,6,3,14
D_EMO,0,9,3,0.357647304,1,1,FPCNB,pre,6,3,14
D_EMO,0,10,3,0.279505552,1,0,FPCNB,pre,6,3,14
D_EMO,0,11,3,0.285951675,1,0,FPCNB,pre,6,3,14
D_EMO,0,12,3,0.338452536,1,0,FPCNB,pre,6,3,14
D_EMO,0,13,3,0.25940314,1,0,FPCNB,pre,6,3,14
D_EMO,0,14,3,0.336067716,1,0,FPCNB,pre,6,3,14
D_EMO,0,15,3,0.314631895,1,0,FPCNB,pre,6,3,14
D_EMO,0,16,3,0.345100917,1,1,FPCNB,pre,6,3,14
D_EMO,0,17,3,0.261824448,1,0,FPCNB,pre,6,3,14
D_EMO,0,18,3,0.350283446,1,1,FPCNB,pre,6,3,14
D_EMO,0,1,4,0.483676397,1,1,FPCNB,pre,6,3,14
D_EMO,0,2,4,0.30874338,1,0,FPCNB,pre,6,3,14
D_EMO,0,3,4,0.315364185,1,1,FPCNB,pre,6,3,14
D_EMO,0,4,4,0.255992782,1,0,FPCNB,pre,6,3,14
D_EMO,0,5,4,0.304717827,1,0,FPCNB,pre,6,3,14
D_EMO,0,6,4,0.361404313,1,1,FPCNB,pre,6,3,14
D_EMO,0,7,4,0.30282655,1,0,FPCNB,pre,6,3,14
D_EMO,0,8,4,0.331826466,1,0,FPCNB,pre,6,3,14
D_EMO,0,9,4,0.365508485,1,1,FPCNB,pre,6,3,14
D_EMO,0,10,4,0.27605461,1,0,FPCNB,pre,6,3,14
D_EMO,0,11,4,0.291161188,1,0,FPCNB,pre,6,3,14
D_EMO,0,12,4,0.315338448,1,0,FPCNB,pre,6,3,14
D_EMO,0,13,4,0.276472792,1,0,FPCNB,pre,6,3,14
D_EMO,0,14,4,0.264594084,1,0,FPCNB,pre,6,3,14
D_EMO,0,15,4,0.350970732,1,0,FPCNB,pre,6,3,14
D_EMO,0,17,4,0.360251976,1,0,FPCNB,pre,6,3,14
D_EMO,0,18,4,0.304105402,1,1,FPCNB,pre,6,3,14
D_EMO,1,1,1,0.23613835,1,0,FPCNB,pre,6,3,14
D_EMO,1,2,1,0.350798624,1,1,FPCNB,pre,6,3,14
D_EMO,1,3,1,0.264755814,1,0,FPCNB,pre,6,3,14
D_EMO,1,4,1,0.32108609,1,0,FPCNB,pre,6,3,14
D_EMO,1,5,1,0.282011758,1,1,FPCNB,pre,6,3,14
D_EMO,1,6,1,0.3295548,1,0,FPCNB,pre,6,3,14
D_EMO,1,7,1,0.326206186,1,1,FPCNB,pre,6,3,14
D_EMO,1,8,1,0.316978958,1,0,FPCNB,pre,6,3,14
D_EMO,1,9,1,0.376542832,1,0,FPCNB,pre,6,3,14
D_EMO,1,10,1,0.265215868,1,1,FPCNB,pre,6,3,14
D_EMO,1,11,1,0.274877212,1,0,FPCNB,pre,6,3,14
D_EMO,1,12,1,0.33651621,1,1,FPCNB,pre,6,3,14
D_EMO,1,13,1,0.409077562,1,0,FPCNB,pre,6,3,14
D_EMO,1,14,1,0.439764805,1,0,FPCNB,pre,6,3,14
D_EMO,1,15,1,0.499114604,1,0,FPCNB,pre,6,3,14
D_EMO,1,16,1,0.417013288,1,0,FPCNB,pre,6,3,14
D_EMO,1,18,1,0.417074073,1,1,FPCNB,pre,6,3,14
D_EMO,1,1,2,0.23374674,1,0,FPCNB,pre,6,3,14
D_EMO,1,2,2,0.328408703,1,0,FPCNB,pre,6,3,14
D_EMO,1,3,2,0.414066855,1,1,FPCNB,pre,6,3,14
D_EMO,1,4,2,0.303790716,1,0,FPCNB,pre,6,3,14
D_EMO,1,5,2,0.323624628,1,1,FPCNB,pre,6,3,14
D_EMO,1,6,2,0.28602485,1,0,FPCNB,pre,6,3,14
D_EMO,1,7,2,0.283097823,1,1,FPCNB,pre,6,3,14
D_EMO,1,8,2,0.36160298,1,0,FPCNB,pre,6,3,14
D_EMO,1,9,2,0.444391804,1,0,FPCNB,pre,6,3,14
D_EMO,1,10,2,0.385794676,1,0,FPCNB,pre,6,3,14
D_EMO,1,12,2,0.486064265,1,0,FPCNB,pre,6,3,14
D_EMO,1,13,2,0.72277023,1,0,FPCNB,pre,6,3,14
D_EMO,1,14,2,0.386373056,1,1,FPCNB,pre,6,3,14
D_EMO,1,15,2,0.383804713,1,0,FPCNB,pre,6,3,14
D_EMO,1,16,2,0.27369646,1,0,FPCNB,pre,6,3,14
D_EMO,1,17,2,0.34118315,1,0,FPCNB,pre,6,3,14
D_EMO,1,1,3,0.247131994,1,0,FPCNB,pre,6,3,14
D_EMO,1,2,3,0.278568674,1,1,FPCNB,pre,6,3,14
D_EMO,1,3,3,0.378333136,1,0,FPCNB,pre,6,3,14
D_EMO,1,4,3,0.334225218,1,0,FPCNB,pre,6,3,14
D_EMO,1,6,3,1.12122938,1,1,FPCNB,pre,6,3,14
D_EMO,1,7,3,0.71757442,1,0,FPCNB,pre,6,3,14
D_EMO,1,8,3,0.811619713,1,0,FPCNB,pre,6,3,14
D_EMO,1,9,3,0.489332252,1,1,FPCNB,pre,6,3,14
D_EMO,1,10,3,0.338949983,1,0,FPCNB,pre,6,3,14
D_EMO,1,11,3,0.287553923,1,1,FPCNB,pre,6,3,14
D_EMO,1,12,3,0.36329596,1,0,FPCNB,pre,6,3,14
D_EMO,1,13,3,0.380364825,1,0,FPCNB,pre,6,3,14
D_EMO,1,14,3,0.324267677,1,0,FPCNB,pre,6,3,14
D_EMO,1,15,3,0.261899652,1,0,FPCNB,pre,6,3,14
D_EMO,1,16,3,0.467354074,1,1,FPCNB,pre,6,3,14
D_EMO,1,17,3,0.464325336,1,0,FPCNB,pre,6,3,14
D_EMO,1,18,3,0.453705352,1,1,FPCNB,pre,6,3,14
D_EMO,1,1,4,0.58525898,1,0,FPCNB,pre,6,3,14
D_EMO,1,2,4,0.509776855,1,0,FPCNB,pre,6,3,14
D_EMO,1,3,4,0.425806482,1,1,FPCNB,pre,6,3,14
D_EMO,1,4,4,0.366512262,1,0,FPCNB,pre,6,3,14
D_EMO,1,5,4,0.670110154,1,1,FPCNB,pre,6,3,14
D_EMO,1,6,4,0.427854932,1,0,FPCNB,pre,6,3,14
D_EMO,1,7,4,0.384319898,1,0,FPCNB,pre,6,3,14
D_EMO,1,8,4,0.368043714,1,1,FPCNB,pre,6,3,14
D_EMO,1,9,4,0.26505177,1,0,FPCNB,pre,6,3,14
D_EMO,1,10,4,0.337422093,1,0,FPCNB,pre,6,3,14
D_EMO,1,11,4,0.336065118,1,1,FPCNB,pre,6,3,14
D_EMO,1,12,4,0.269724579,1,0,FPCNB,pre,6,3,14
D_EMO,1,13,4,0.353873185,1,0,FPCNB,pre,6,3,14
D_EMO,1,14,4,0.315330038,1,1,FPCNB,pre,6,3,14
D_EMO,1,15,4,0.365371835,1,0,FPCNB,pre,6,3,14
D_EMO,1,16,4,0.439124748,1,1,FPCNB,pre,6,3,14
D_EMO,1,17,4,0.489849078,1,0,FPCNB,pre,6,3,14
D_EMO,1,18,4,0.370523412,1,0,FPCNB,pre,6,3,14
D_EMO,2,1,1,0.247042532,1,0,FPCNB,pre,6,3,14
D_EMO,2,2,1,0.28429213,1,0,FPCNB,pre,6,3,14
D_EMO,2,3,1,0.32926716,1,0,FPCNB,pre,6,3,14
D_EMO,2,4,1,0.340746963,1,1,FPCNB,pre,6,3,14
D_EMO,2,5,1,0.291297408,1,0,FPCNB,pre,6,3,14
D_EMO,2,6,1,0.44729015,1,0,FPCNB,pre,6,3,14
D_EMO,2,8,1,0.491806968,1,0,FPCNB,pre,6,3,14
D_EMO,2,9,1,0.641546913,1,0,FPCNB,pre,6,3,14
D_EMO,2,10,1,0.271335451,1,1,FPCNB,pre,6,3,14
D_EMO,2,11,1,0.524910297,1,0,FPCNB,pre,6,3,14
D_EMO,2,12,1,0.517436538,1,1,FPCNB,pre,6,3,14
D_EMO,2,13,1,0.576422785,1,0,FPCNB,pre,6,3,14
D_EMO,2,14,1,0.480074637,1,0,FPCNB,pre,6,3,14
D_EMO,2,16,1,0.38102766,1,0,FPCNB,pre,6,3,14
D_EMO,2,17,1,0.642524385,1,0,FPCNB,pre,6,3,14
D_EMO,2,18,1,0.443381712,1,1,FPCNB,pre,6,3,14
D_EMO,2,1,2,0.241814852,1,0,FPCNB,pre,6,3,14
D_EMO,2,2,2,0.287393117,1,0,FPCNB,pre,6,3,14
D_EMO,2,3,2,0.447342119,1,1,FPCNB,pre,6,3,14
D_EMO,2,4,2,0.393391027,1,0,FPCNB,pre,6,3,14
D_EMO,2,5,2,0.381586,1,0,FPCNB,pre,6,3,14
D_EMO,2,6,2,0.337178273,1,1,FPCNB,pre,6,3,14
D_EMO,2,7,2,0.367684905,1,0,FPCNB,pre,6,3,14
D_EMO,2,8,2,0.59579725,1,1,FPCNB,pre,6,3,14
D_EMO,2,9,2,0.592154436,1,0,FPCNB,pre,6,3,14
D_EMO,2,10,2,0.74790917,1,0,FPCNB,pre,6,3,14
D_EMO,2,11,2,0.505466725,1,1,FPCNB,pre,6,3,14
D_EMO,2,12,2,0.91989812,1,0,FPCNB,pre,6,3,14
D_EMO,2,14,2,0.654401531,1,0,FPCNB,pre,6,3,14
D_EMO,2,15,2,0.298908852,1,1,FPCNB,pre,6,3,14
D_EMO,2,16,2,0.304286261,1,0,FPCNB,pre,6,3,14
D_EMO,2,17,2,0.413330668,1,0,FPCNB,pre,6,3,14
D_EMO,2,18,2,0.343749252,1,1,FPCNB,pre,6,3,14
D_EMO,2,1,3,0.412353177,1,0,FPCNB,pre,6,3,14
D_EMO,2,2,3,0.336028224,1,0,FPCNB,pre,6,3,14
D_EMO,2,3,3,0.403689274,1,0,FPCNB,pre,6,3,14
D_EMO,2,4,3,0.62131818,1,1,FPCNB,pre,6,3,14
D_EMO,2,5,3,0.496060952,1,0,FPCNB,pre,6,3,14
D_EMO,2,6,3,0.602716735,1,0,FPCNB,pre,6,3,14
D_EMO,2,7,3,0.500363074,1,1,FPCNB,pre,6,3,14
D_EMO,2,8,3,0.32904475,1,0,FPCNB,pre,6,3,14
D_EMO,2,9,3,0.445833695,1,0,FPCNB,pre,6,3,14
D_EMO,2,10,3,0.468721095,1,1,FPCNB,pre,6,3,14
D_EMO,2,11,3,0.398821796,1,0,FPCNB,pre,6,3,14
D_EMO,2,12,3,0.459216917,1,1,FPCNB,pre,6,3,14
D_EMO,2,13,3,0.583132683,1,0,FPCNB,pre,6,3,14
D_EMO,2,16,3,0.4376793,1,0,FPCNB,pre,6,3,14
D_EMO,2,17,3,0.454100074,1,0,FPCNB,pre,6,3,14
D_EMO,2,18,3,0.397020146,1,1,FPCNB,pre,6,3,14
D_EMO,2,1,4,0.458879709,1,0,FPCNB,pre,6,3,14
D_EMO,2,2,4,0.593380017,1,0,FPCNB,pre,6,3,14
D_EMO,2,3,4,0.335008564,1,1,FPCNB,pre,6,3,14
D_EMO,2,4,4,0.351297882,1,0,FPCNB,pre,6,3,14
D_EMO,2,6,4,0.371093379,1,0,FPCNB,pre,6,3,14
D_EMO,2,7,4,0.500980667,1,0,FPCNB,pre,6,3,14
D_EMO,2,8,4,0.354497841,1,1,FPCNB,pre,6,3,14
D_EMO,2,9,4,0.529226498,1,0,FPCNB,pre,6,3,14
D_EMO,2,10,4,0.403727877,1,0,FPCNB,pre,6,3,14
D_EMO,2,11,4,0.608314638,1,1,FPCNB,pre,6,3,14
D_EMO,2,12,4,0.390269878,1,0,FPCNB,pre,6,3,14
D_EMO,2,13,4,0.651567444,1,1,FPCNB,pre,6,3,14
D_EMO,2,14,4,0.728446604,1,0,FPCNB,pre,6,3,14
D_EMO,2,15,4,0.810608645,1,0,FPCNB,pre,6,3,14
D_EMO,2,16,4,0.705500467,1,0,FPCNB,pre,6,3,14
D_EMO,2,17,4,0.485063676,1,0,FPCNB,pre,6,3,14
D_EMO,2,18,4,0.50067055,1,1,FPCNB,pre,6,3,14
D_EMO,0,1,1,0.293097598,1,0,FPCNB,post,2,3,14
D_EMO,0,2,1,0.397112028,1,0,FPCNB,post,2,3,14
D_EMO,0,3,1,0.249766378,1,0,FPCNB,post,2,3,14
D_EMO,0,4,1,0.329209733,1,1,FPCNB,post,2,3,14
D_EMO,0,5,1,0.26463371,1,0,FPCNB,post,2,3,14
D_EMO,0,6,1,0.242227624,1,0,FPCNB,post,2,3,14
D_EMO,0,7,1,0.277013117,1,0,FPCNB,post,2,3,14
D_EMO,0,8,1,0.257827058,1,0,FPCNB,post,2,3,14
D_EMO,0,9,1,0.286492559,1,1,FPCNB,post,2,3,14
D_EMO,0,10,1,0.300181455,1,0,FPCNB,post,2,3,14
D_EMO,0,11,1,0.361926795,1,1,FPCNB,post,2,3,14
D_EMO,0,12,1,0.23847791,1,0,FPCNB,post,2,3,14
D_EMO,0,13,1,0.336923058,1,1,FPCNB,post,2,3,14
D_EMO,0,14,1,0.254756285,1,0,FPCNB,post,2,3,14
D_EMO,0,15,1,0.28575141,1,1,FPCNB,post,2,3,14
D_EMO,0,16,1,0.238817767,1,0,FPCNB,post,2,3,14
D_EMO,0,17,1,0.327379374,1,1,FPCNB,post,2,3,14
D_EMO,0,18,1,0.227963992,1,0,FPCNB,post,2,3,14
D_EMO,0,1,2,0.381127737,1,0,FPCNB,post,2,3,14
D_EMO,0,2,2,0.223939043,1,0,FPCNB,post,2,3,14
D_EMO,0,3,2,0.282671824,1,0,FPCNB,post,2,3,14
D_EMO,0,4,2,0.26052578,1,1,FPCNB,post,2,3,14
D_EMO,0,5,2,0.243813744,1,0,FPCNB,post,2,3,14
D_EMO,0,6,2,0.277937112,1,0,FPCNB,post,2,3,14
D_EMO,0,7,2,0.365259452,1,0,FPCNB,post,2,3,14
D_EMO,0,8,2,0.337216054,1,0,FPCNB,post,2,3,14
D_EMO,0,9,2,0.263525793,1,1,FPCNB,post,2,3,14
D_EMO,0,10,2,0.322228337,1,0,FPCNB,post,2,3,14
D_EMO,0,12,2,0.340548544,1,0,FPCNB,post,2,3,14
D_EMO,0,13,2,0.45387509,1,1,FPCNB,post,2,3,14
D_EMO,0,14,2,0.285056677,1,0,FPCNB,post,2,3,14
D_EMO,0,15,2,0.409865698,1,1,FPCNB,post,2,3,14
D_EMO,0,16,2,0.284130424,1,0,FPCNB,post,2,3,14
D_EMO,0,17,2,0.409925073,1,1,FPCNB,post,2,3,14
D_EMO,0,18,2,0.23755093,1,0,FPCNB,post,2,3,14
D_EMO,0,1,3,0.386083628,1,0,FPCNB,post,2,3,14
D_EMO,0,2,3,0.29310786,1,0,FPCNB,post,2,3,14
D_EMO,0,3,3,0.267543336,1,0,FPCNB,post,2,3,14
D_EMO,0,4,3,0.425309922,1,1,FPCNB,post,2,3,14
D_EMO,0,5,3,0.300015766,1,0,FPCNB,post,2,3,14
D_EMO,0,6,3,0.31054688,1,0,FPCNB,post,2,3,14
D_EMO,0,7,3,0.2832264,1,0,FPCNB,post,2,3,14
D_EMO,0,8,3,0.315084042,1,0,FPCNB,post,2,3,14
D_EMO,0,10,3,0.233238522,1,0,FPCNB,post,2,3,14
D_EMO,0,11,3,0.276031878,1,1,FPCNB,post,2,3,14
D_EMO,0,12,3,0.234564405,1,0,FPCNB,post,2,3,14
D_EMO,0,13,3,0.337118697,1,1,FPCNB,post,2,3,14
D_EMO,0,14,3,0.254986882,1,0,FPCNB,post,2,3,14
D_EMO,0,15,3,0.421407777,1,1,FPCNB,post,2,3,14
D_EMO,0,16,3,0.29096665,1,0,FPCNB,post,2,3,14
D_EMO,0,17,3,0.393884658,1,1,FPCNB,post,2,3,14
D_EMO,0,18,3,0.244289892,1,0,FPCNB,post,2,3,14
D_EMO,0,1,4,0.295818268,1,0,FPCNB,post,2,3,14
D_EMO,0,2,4,0.296687921,1,0,FPCNB,post,2,3,14
D_EMO,0,3,4,0.276975722,1,0,FPCNB,post,2,3,14
D_EMO,0,4,4,0.248925335,1,1,FPCNB,post,2,3,14
D_EMO,0,5,4,0.21831052,1,0,FPCNB,post,2,3,14
D_EMO,0,6,4,0.326944497,1,0,FPCNB,post,2,3,14
D_EMO,0,7,4,0.28570598,1,0,FPCNB,post,2,3,14
D_EMO,0,8,4,0.325298351,1,0,FPCNB,post,2,3,14
D_EMO,0,9,4,0.313251147,1,1,FPCNB,post,2,3,14
D_EMO,0,10,4,0.272685242,1,0,FPCNB,post,2,3,14
D_EMO,0,11,4,0.388299521,1,1,FPCNB,post,2,3,14
D_EMO,0,12,4,0.293488162,1,0,FPCNB,post,2,3,14
D_EMO,0,13,4,0.434521556,1,1,FPCNB,post,2,3,14
D_EMO,0,14,4,0.285312815,1,0,FPCNB,post,2,3,14
D_EMO,0,15,4,0.366837093,1,1,FPCNB,post,2,3,14
D_EMO,0,16,4,0.234344078,1,0,FPCNB,post,2,3,14
D_EMO,0,17,4,0.354088257,1,1,FPCNB,post,2,3,14
D_EMO,0,18,4,0.251767025,1,0,FPCNB,post,2,3,14
D_EMO,1,1,1,0.382780608,1,0,FPCNB,post,2,3,14
D_EMO,1,2,1,0.29028139,1,0,FPCNB,post,2,3,14
D_EMO,1,3,1,0.29534614,1,1,FPCNB,post,2,3,14
D_EMO,1,4,1,0.306902892,1,0,FPCNB,post,2,3,14
D_EMO,1,5,1,0.385847006,1,1,FPCNB,post,2,3,14
D_EMO,1,6,1,0.249790864,1,0,FPCNB,post,2,3,14
D_EMO,1,7,1,0.332964925,1,1,FPCNB,post,2,3,14
D_EMO,1,8,1,0.26742426,1,0,FPCNB,post,2,3,14
D_EMO,1,9,1,0.408204983,1,0,FPCNB,post,2,3,14
D_EMO,1,10,1,0.373628242,1,0,FPCNB,post,2,3,14
D_EMO,1,11,1,0.25256112,1,1,FPCNB,post,2,3,14
D_EMO,1,12,1,0.310956106,1,0,FPCNB,post,2,3,14
D_EMO,1,13,1,0.270168479,1,0,FPCNB,post,2,3,14
D_EMO,1,15,1,0.342596655,1,0,FPCNB,post,2,3,14
D_EMO,1,16,1,0.356973192,1,0,FPCNB,post,2,3,14
D_EMO,1,17,1,0.40828146,1,0,FPCNB,post,2,3,14
D_EMO,1,1,2,0.300160686,1,0,FPCNB,post,2,3,14
D_EMO,1,2,2,0.322339861,1,1,FPCNB,post,2,3,14
D_EMO,1,3,2,0.31406325,1,0,FPCNB,post,2,3,14
D_EMO,1,4,2,0.39293648,1,0,FPCNB,post,2,3,14
D_EMO,1,5,2,0.332682296,1,1,FPCNB,post,2,3,14
D_EMO,1,6,2,0.30145718,1,0,FPCNB,post,2,3,14
D_EMO,1,7,2,0.307255425,1,1,FPCNB,post,2,3,14
D_EMO,1,8,2,0.287934185,1,0,FPCNB,post,2,3,14
D_EMO,1,9,2,0.327180227,1,0,FPCNB,post,2,3,14
D_EMO,1,10,2,0.39631329,1,1,FPCNB,post,2,3,14
D_EMO,1,11,2,0.332012445,1,0,FPCNB,post,2,3,14
D_EMO,1,12,2,0.363284302,1,1,FPCNB,post,2,3,14
D_EMO,1,13,2,0.334141955,1,0,FPCNB,post,2,3,14
D_EMO,1,14,2,0.437863152,1,0,FPCNB,post,2,3,14
D_EMO,1,16,2,0.344999232,1,0,FPCNB,post,2,3,14
D_EMO,1,17,2,0.704352614,1,0,FPCNB,post,2,3,14
D_EMO,1,18,2,0.291282177,1,1,FPCNB,post,2,3,14
D_EMO,1,1,3,0.207154087,1,0,FPCNB,post,2,3,14
D_EMO,1,2,3,0.315592586,1,0,FPCNB,post,2,3,14
D_EMO,1,4,3,0.516714202,1,0,FPCNB,post,2,3,14
D_EMO,1,5,3,0.290030885,1,1,FPCNB,post,2,3,14
D_EMO,1,6,3,0.586490745,1,0,FPCNB,post,2,3,14
D_EMO,1,7,3,0.398935657,1,0,FPCNB,post,2,3,14
D_EMO,1,8,3,0.555012504,1,1,FPCNB,post,2,3,14
D_EMO,1,9,3,0.353651696,1,0,FPCNB,post,2,3,14
D_EMO,1,10,3,0.32328852,1,0,FPCNB,post,2,3,14
D_EMO,1,11,3,0.423989906,1,1,FPCNB,post,2,3,14
D_EMO,1,12,3,0.26363701,1,0,FPCNB,post,2,3,14
D_EMO,1,13,3,0.287243502,1,0,FPCNB,post,2,3,14
D_EMO,1,14,3,0.3856981,1,1,FPCNB,post,2,3,14
D_EMO,1,15,3,0.29441641,1,0,FPCNB,post,2,3,14
D_EMO,1,16,3,0.407670787,1,1,FPCNB,post,2,3,14
D_EMO,1,17,3,0.267332018,1,0,FPCNB,post,2,3,14
D_EMO,1,18,3,0.298209074,1,0,FPCNB,post,2,3,14
D_EMO,1,1,4,0.637861454,1,0,FPCNB,post,2,3,14
D_EMO,1,2,4,0.315643886,1,1,FPCNB,post,2,3,14
D_EMO,1,3,4,0.312145746,1,0,FPCNB,post,2,3,14
D_EMO,1,4,4,0.339830053,1,0,FPCNB,post,2,3,14
D_EMO,1,5,4,0.389587365,1,0,FPCNB,post,2,3,14
D_EMO,1,7,4,0.524988123,1,0,FPCNB,post,2,3,14
D_EMO,1,8,4,0.405503591,1,0,FPCNB,post,2,3,14
D_EMO,1,9,4,0.322237781,1,1,FPCNB,post,2,3,14
D_EMO,1,10,4,0.367596624,1,0,FPCNB,post,2,3,14
D_EMO,1,11,4,0.461582644,1,1,FPCNB,post,2,3,14
D_EMO,1,12,4,0.468054993,1,0,FPCNB,post,2,3,14
D_EMO,1,13,4,0.337935113,1,0,FPCNB,post,2,3,14
D_EMO,1,14,4,0.59964656,1,0,FPCNB,post,2,3,14
D_EMO,1,17,4,0.40925819,1,0,FPCNB,post,2,3,14
D_EMO,1,18,4,0.535731822,1,1,FPCNB,post,2,3,14
D_EMO,2,1,1,0.254859482,1,0,FPCNB,post,2,3,14
D_EMO,2,2,1,0.227698644,1,0,FPCNB,post,2,3,14
D_EMO,2,3,1,0.403018414,1,1,FPCNB,post,2,3,14
D_EMO,2,4,1,0.512214823,1,0,FPCNB,post,2,3,14
D_EMO,2,5,1,0.535786357,1,0,FPCNB,post,2,3,14
D_EMO,2,6,1,0.307818002,1,1,FPCNB,post,2,3,14
D_EMO,2,7,1,0.314762902,1,0,FPCNB,post,2,3,14
D_EMO,2,8,1,0.323862335,1,1,FPCNB,post,2,3,14
D_EMO,2,9,1,0.68079086,1,0,FPCNB,post,2,3,14
D_EMO,2,10,1,0.630118402,1,0,FPCNB,post,2,3,14
D_EMO,2,11,1,0.499857293,1,1,FPCNB,post,2,3,14
D_EMO,2,12,1,0.525302855,1,0,FPCNB,post,2,3,14
D_EMO,2,13,1,0.676863265,1,0,FPCNB,post,2,3,14
D_EMO,2,14,1,0.681173516,1,0,FPCNB,post,2,3,14
D_EMO,2,15,1,0.750184122,1,1,FPCNB,post,2,3,14
D_EMO,2,16,1,0.852367823,1,0,FPCNB,post,2,3,14
D_EMO,2,17,1,0.7555443,1,0,FPCNB,post,2,3,14
D_EMO,2,18,1,0.515318343,1,1,FPCNB,post,2,3,14
D_EMO,2,1,2,0.50722263,1,0,FPCNB,post,2,3,14
D_EMO,2,2,2,0.53374003,1,0,FPCNB,post,2,3,14
D_EMO,2,3,2,0.454380312,1,0,FPCNB,post,2,3,14
D_EMO,2,4,2,0.762240212,1,1,FPCNB,post,2,3,14
D_EMO,2,5,2,0.673920357,1,0,FPCNB,post,2,3,14
D_EMO,2,8,2,0.633923846,1,0,FPCNB,post,2,3,14
D_EMO,2,9,2,0.522497439,1,0,FPCNB,post,2,3,14
D_EMO,2,10,2,0.31792977,1,1,FPCNB,post,2,3,14
D_EMO,2,11,2,0.572927307,1,0,FPCNB,post,2,3,14
D_EMO,2,14,2,0.764166132,1,0,FPCNB,post,2,3,14
D_EMO,2,15,2,1.065403978,1,1,FPCNB,post,2,3,14
D_EMO,2,16,2,0.399078126,1,0,FPCNB,post,2,3,14
D_EMO,2,17,2,0.554579368,1,0,FPCNB,post,2,3,14
D_EMO,2,18,2,0.363502187,1,1,FPCNB,post,2,3,14
D_EMO,2,2,3,0.262560124,1,0,FPCNB,post,2,3,14
D_EMO,2,3,3,0.419044622,1,1,FPCNB,post,2,3,14
D_EMO,2,4,3,0.445796858,1,0,FPCNB,post,2,3,14
D_EMO,2,5,3,0.377152085,1,1,FPCNB,post,2,3,14
D_EMO,2,6,3,0.589045752,1,0,FPCNB,post,2,3,14
D_EMO,2,7,3,0.88977407,1,0,FPCNB,post,2,3,14
D_EMO,2,8,3,0.770526595,1,1,FPCNB,post,2,3,14
D_EMO,2,9,3,0.571136942,1,0,FPCNB,post,2,3,14
D_EMO,2,10,3,0.417705372,1,0,FPCNB,post,2,3,14
D_EMO,2,11,3,0.392084868,1,1,FPCNB,post,2,3,14
D_EMO,2,12,3,0.427123049,1,0,FPCNB,post,2,3,14
D_EMO,2,13,3,0.790758523,1,1,FPCNB,post,2,3,14
D_EMO,2,14,3,0.888401062,1,0,FPCNB,post,2,3,14
D_EMO,2,15,3,0.8890957,1,0,FPCNB,post,2,3,14
D_EMO,2,16,3,0.704431763,1,0,FPCNB,post,2,3,14
D_EMO,2,17,3,0.561735053,1,0,FPCNB,post,2,3,14
D_EMO,2,18,3,0.696881732,1,1,FPCNB,post,2,3,14
D_EMO,2,1,4,0.46649189,1,0,FPCNB,post,2,3,14
D_EMO,2,2,4,0.554403386,1,0,FPCNB,post,2,3,14
D_EMO,2,3,4,0.371910022,1,0,FPCNB,post,2,3,14
D_EMO,2,4,4,0.437691617,1,1,FPCNB,post,2,3,14
D_EMO,2,5,4,0.365546247,1,0,FPCNB,post,2,3,14
D_EMO,2,6,4,0.600895318,1,0,FPCNB,post,2,3,14
D_EMO,2,7,4,0.284588848,1,1,FPCNB,post,2,3,14
D_EMO,2,8,4,0.358783435,1,0,FPCNB,post,2,3,14
D_EMO,2,9,4,0.400272137,1,0,FPCNB,post,2,3,14
D_EMO,2,10,4,0.323044469,1,1,FPCNB,post,2,3,14
D_EMO,2,11,4,0.40861062,1,0,FPCNB,post,2,3,14
D_EMO,2,12,4,0.66435668,1,1,FPCNB,post,2,3,14
D_EMO,2,13,4,0.564026009,1,0,FPCNB,post,2,3,14
D_EMO,2,14,4,0.613087372,1,1,FPCNB,post,2,3,14
D_EMO,2,15,4,0.41453854,1,0,FPCNB,post,2,3,14
D_EMO,2,17,4,0.671415826,1,0,FPCNB,post,2,3,14
D_EMO,2,18,4,0.909330147,1,1,FPCNB,post,2,3,14
D_EMO,0,1,1,0.713045077,1,0,vertex,pre,5,1,0
D_EMO,0,2,1,0.361676248,1,0,vertex,pre,5,1,0
D_EMO,0,3,1,0.378897035,1,0,vertex,pre,5,1,0
D_EMO,0,4,1,0.378384706,1,1,vertex,pre,5,1,0
D_EMO,0,5,1,0.34706595,1,0,vertex,pre,5,1,0
D_EMO,0,6,1,0.320546695,1,0,vertex,pre,5,1,0
D_EMO,0,7,1,0.336666799,1,0,vertex,pre,5,1,0
D_EMO,0,8,1,0.321693751,1,0,vertex,pre,5,1,0
D_EMO,0,9,1,0.376812335,1,1,vertex,pre,5,1,0
D_EMO,0,10,1,0.322456171,1,0,vertex,pre,5,1,0
D_EMO,0,11,1,0.304367678,1,1,vertex,pre,5,1,0
D_EMO,0,12,1,0.301061898,1,0,vertex,pre,5,1,0
D_EMO,0,13,1,0.344468837,1,1,vertex,pre,5,1,0
D_EMO,0,14,1,0.36646145,1,0,vertex,pre,5,1,0
D_EMO,0,15,1,0.406548598,1,1,vertex,pre,5,1,0
D_EMO,0,16,1,0.336578931,1,0,vertex,pre,5,1,0
D_EMO,0,17,1,0.322819037,1,1,vertex,pre,5,1,0
D_EMO,0,18,1,0.28451002,1,0,vertex,pre,5,1,0
D_EMO,0,1,2,0.404419744,1,0,vertex,pre,5,1,0
D_EMO,0,2,2,0.257983404,1,0,vertex,pre,5,1,0
D_EMO,0,3,2,0.32473053,1,0,vertex,pre,5,1,0
D_EMO,0,4,2,0.382853548,1,1,vertex,pre,5,1,0
D_EMO,0,5,2,0.329113895,1,0,vertex,pre,5,1,0
D_EMO,0,6,2,0.430695212,1,0,vertex,pre,5,1,0
D_EMO,0,7,2,0.25717328,1,0,vertex,pre,5,1,0
D_EMO,0,8,2,0.232582473,1,0,vertex,pre,5,1,0
D_EMO,0,10,2,0.358992716,1,0,vertex,pre,5,1,0
D_EMO,0,11,2,0.46602771,1,1,vertex,pre,5,1,0
D_EMO,0,12,2,0.324952952,1,0,vertex,pre,5,1,0
D_EMO,0,13,2,0.435016483,1,1,vertex,pre,5,1,0
D_EMO,0,14,2,0.293496754,1,0,vertex,pre,5,1,0
D_EMO,0,15,2,0.435236904,1,1,vertex,pre,5,1,0
D_EMO,0,16,2,0.385875962,1,0,vertex,pre,5,1,0
D_EMO,0,17,2,0.380886806,1,1,vertex,pre,5,1,0
D_EMO,0,18,2,0.327245033,1,0,vertex,pre,5,1,0
D_EMO,0,1,3,0.334554165,1,0,vertex,pre,5,1,0
D_EMO,0,2,3,0.284261906,1,0,vertex,pre,5,1,0
D_EMO,0,3,3,0.316114127,1,0,vertex,pre,5,1,0
D_EMO,0,4,3,0.449664205,1,1,vertex,pre,5,1,0
D_EMO,0,5,3,0.357628414,1,0,vertex,pre,5,1,0
D_EMO,0,6,3,0.248209814,1,0,vertex,pre,5,1,0
D_EMO,0,7,3,0.24909049,1,0,vertex,pre,5,1,0
D_EMO,0,8,3,0.285167398,1,0,vertex,pre,5,1,0
D_EMO,0,10,3,0.392518086,1,0,vertex,pre,5,1,0
D_EMO,0,11,3,0.35502702,1,1,vertex,pre,5,1,0
D_EMO,0,12,3,0.295020722,1,0,vertex,pre,5,1,0
D_EMO,0,13,3,0.405595975,1,1,vertex,pre,5,1,0
D_EMO,0,14,3,0.33483853,1,0,vertex,pre,5,1,0
D_EMO,0,15,3,0.40253632,1,1,vertex,pre,5,1,0
D_EMO,0,16,3,0.25594721,1,0,vertex,pre,5,1,0
D_EMO,0,17,3,0.40569054,1,1,vertex,pre,5,1,0
D_EMO,0,18,3,0.322360635,1,0,vertex,pre,5,1,0
D_EMO,0,1,4,0.460683191,1,0,vertex,pre,5,1,0
D_EMO,0,2,4,0.242532875,1,0,vertex,pre,5,1,0
D_EMO,0,3,4,0.214215735,1,0,vertex,pre,5,1,0
D_EMO,0,4,4,0.392809922,1,1,vertex,pre,5,1,0
D_EMO,0,5,4,0.440490885,1,0,vertex,pre,5,1,0
D_EMO,0,6,4,0.313263369,1,0,vertex,pre,5,1,0
D_EMO,0,7,4,0.298753812,1,0,vertex,pre,5,1,0
D_EMO,0,8,4,0.34652805,1,0,vertex,pre,5,1,0
D_EMO,0,9,4,0.369074805,1,1,vertex,pre,5,1,0
D_EMO,0,10,4,0.451646583,1,0,vertex,pre,5,1,0
D_EMO,0,11,4,0.427105292,1,1,vertex,pre,5,1,0
D_EMO,0,12,4,0.309393202,1,0,vertex,pre,5,1,0
D_EMO,0,13,4,0.394916324,1,1,vertex,pre,5,1,0
D_EMO,0,14,4,0.323150665,1,0,vertex,pre,5,1,0
D_EMO,0,15,4,0.360676628,1,1,vertex,pre,5,1,0
D_EMO,0,16,4,0.251171745,1,0,vertex,pre,5,1,0
D_EMO,0,17,4,0.31801205,1,1,vertex,pre,5,1,0
D_EMO,0,18,4,0.258423985,1,0,vertex,pre,5,1,0
D_EMO,1,1,1,0.679366054,1,0,vertex,pre,5,1,0
D_EMO,1,2,1,0.442081297,1,0,vertex,pre,5,1,0
D_EMO,1,3,1,0.331785888,1,1,vertex,pre,5,1,0
D_EMO,1,4,1,0.277102928,1,0,vertex,pre,5,1,0
D_EMO,1,5,1,0.540940562,1,1,vertex,pre,5,1,0
D_EMO,1,6,1,0.28438943,1,0,vertex,pre,5,1,0
D_EMO,1,7,1,0.255317117,1,1,vertex,pre,5,1,0
D_EMO,1,8,1,0.473085625,1,0,vertex,pre,5,1,0
D_EMO,1,9,1,0.33485273,1,0,vertex,pre,5,1,0
D_EMO,1,10,1,0.343917174,1,0,vertex,pre,5,1,0
D_EMO,1,11,1,0.434867507,1,1,vertex,pre,5,1,0
D_EMO,1,12,1,0.38654794,1,0,vertex,pre,5,1,0
D_EMO,1,13,1,0.282509463,1,0,vertex,pre,5,1,0
D_EMO,1,14,1,0.219030836,1,1,vertex,pre,5,1,0
D_EMO,1,15,1,0.446443116,1,0,vertex,pre,5,1,0
D_EMO,1,16,1,0.356100704,1,0,vertex,pre,5,1,0
D_EMO,1,17,1,0.33184475,1,0,vertex,pre,5,1,0
D_EMO,1,1,2,0.39230348,1,0,vertex,pre,5,1,0
D_EMO,1,2,2,0.438733632,1,0,vertex,pre,5,1,0
D_EMO,1,3,2,0.29395801,1,1,vertex,pre,5,1,0
D_EMO,1,4,2,0.328289229,1,0,vertex,pre,5,1,0
D_EMO,1,5,2,0.32701953,1,1,vertex,pre,5,1,0
D_EMO,1,6,2,0.302475172,1,0,vertex,pre,5,1,0
D_EMO,1,7,2,0.307547058,1,0,vertex,pre,5,1,0
D_EMO,1,8,2,0.447352492,1,1,vertex,pre,5,1,0
D_EMO,1,9,2,0.307843081,1,0,vertex,pre,5,1,0
D_EMO,1,10,2,0.392867095,1,0,vertex,pre,5,1,0
D_EMO,1,12,2,0.43564177,1,0,vertex,pre,5,1,0
D_EMO,1,14,2,0.538054565,1,1,vertex,pre,5,1,0
D_EMO,1,15,2,0.230318416,1,0,vertex,pre,5,1,0
D_EMO,1,16,2,0.38120922,1,1,vertex,pre,5,1,0
D_EMO,1,17,2,0.355488643,1,0,vertex,pre,5,1,0
D_EMO,1,18,2,0.319342747,1,0,vertex,pre,5,1,0
D_EMO,1,1,3,0.598373942,1,0,vertex,pre,5,1,0
D_EMO,1,2,3,0.47184238,1,1,vertex,pre,5,1,0
D_EMO,1,3,3,0.380711925,1,0,vertex,pre,5,1,0
D_EMO,1,4,3,0.276317285,1,0,vertex,pre,5,1,0
D_EMO,1,5,3,0.288100357,1,1,vertex,pre,5,1,0
D_EMO,1,6,3,0.356818798,1,0,vertex,pre,5,1,0
D_EMO,1,7,3,0.304381409,1,1,vertex,pre,5,1,0
D_EMO,1,8,3,0.340135978,1,0,vertex,pre,5,1,0
D_EMO,1,9,3,0.260496196,1,0,vertex,pre,5,1,0
D_EMO,1,11,3,0.39185127,1,0,vertex,pre,5,1,0
D_EMO,1,12,3,0.368444342,1,1,vertex,pre,5,1,0
D_EMO,1,13,3,0.463543666,1,0,vertex,pre,5,1,0
D_EMO,1,14,3,0.620842478,1,0,vertex,pre,5,1,0
D_EMO,1,15,3,0.347441692,1,0,vertex,pre,5,1,0
D_EMO,1,16,3,0.47180708,1,0,vertex,pre,5,1,0
D_EMO,1,17,3,0.403754677,1,0,vertex,pre,5,1,0
D_EMO,1,18,3,0.309727353,1,1,vertex,pre,5,1,0
D_EMO,1,1,4,0.520223723,1,0,vertex,pre,5,1,0
D_EMO,1,3,4,0.40879468,1,0,vertex,pre,5,1,0
D_EMO,1,4,4,0.424953609,1,0,vertex,pre,5,1,0
D_EMO,1,5,4,0.434892872,1,0,vertex,pre,5,1,0
D_EMO,1,6,4,0.33380375,1,1,vertex,pre,5,1,0
D_EMO,1,7,4,0.474564737,1,0,vertex,pre,5,1,0
D_EMO,1,8,4,0.519004459,1,0,vertex,pre,5,1,0
D_EMO,1,9,4,0.516822776,1,1,vertex,pre,5,1,0
D_EMO,1,11,4,0.524927403,1,1,vertex,pre,5,1,0
D_EMO,1,12,4,0.273739443,1,0,vertex,pre,5,1,0
D_EMO,1,13,4,0.385153852,1,0,vertex,pre,5,1,0
D_EMO,1,15,4,0.466705037,1,0,vertex,pre,5,1,0
D_EMO,1,16,4,0.548379063,1,1,vertex,pre,5,1,0
D_EMO,1,17,4,0.302409484,1,0,vertex,pre,5,1,0
D_EMO,1,18,4,0.458325438,1,1,vertex,pre,5,1,0
D_EMO,2,1,1,0.630044299,1,0,vertex,pre,5,1,0
D_EMO,2,2,1,0.38132736,1,0,vertex,pre,5,1,0
D_EMO,2,3,1,0.65492029,1,1,vertex,pre,5,1,0
D_EMO,2,4,1,0.453328428,1,0,vertex,pre,5,1,0
D_EMO,2,5,1,0.556203199,1,0,vertex,pre,5,1,0
D_EMO,2,6,1,0.504907246,1,1,vertex,pre,5,1,0
D_EMO,2,7,1,0.566511108,1,0,vertex,pre,5,1,0
D_EMO,2,8,1,0.57353749,1,1,vertex,pre,5,1,0
D_EMO,2,9,1,0.54991805,1,0,vertex,pre,5,1,0
D_EMO,2,10,1,0.386486675,1,0,vertex,pre,5,1,0
D_EMO,2,11,1,0.55515265,1,1,vertex,pre,5,1,0
D_EMO,2,12,1,0.6177116,1,0,vertex,pre,5,1,0
D_EMO,2,13,1,0.723425894,1,0,vertex,pre,5,1,0
D_EMO,2,14,1,0.419128163,1,0,vertex,pre,5,1,0
D_EMO,2,15,1,0.527267183,1,1,vertex,pre,5,1,0
D_EMO,2,16,1,0.752850403,1,0,vertex,pre,5,1,0
D_EMO,2,17,1,0.31743344,1,0,vertex,pre,5,1,0
D_EMO,2,18,1,0.553261498,1,1,vertex,pre,5,1,0
D_EMO,2,1,2,0.317415738,1,0,vertex,pre,5,1,0
D_EMO,2,2,2,0.257230134,1,0,vertex,pre,5,1,0
D_EMO,2,3,2,0.382866134,1,1,vertex,pre,5,1,0
D_EMO,2,4,2,0.54887944,1,0,vertex,pre,5,1,0
D_EMO,2,6,2,1.364190904,1,0,vertex,pre,5,1,0
D_EMO,2,7,2,0.740606676,1,0,vertex,pre,5,1,0
D_EMO,2,8,2,0.570403343,1,1,vertex,pre,5,1,0
D_EMO,2,9,2,0.571080123,1,0,vertex,pre,5,1,0
D_EMO,2,10,2,0.43255446,1,0,vertex,pre,5,1,0
D_EMO,2,11,2,1.08045366,1,1,vertex,pre,5,1,0
D_EMO,2,12,2,0.826923085,1,0,vertex,pre,5,1,0
D_EMO,2,13,2,0.907647905,1,1,vertex,pre,5,1,0
D_EMO,2,14,2,0.511164862,1,0,vertex,pre,5,1,0
D_EMO,2,15,2,0.78261483,1,0,vertex,pre,5,1,0
D_EMO,2,16,2,0.65933952,1,0,vertex,pre,5,1,0
D_EMO,2,17,2,0.635906643,1,0,vertex,pre,5,1,0
D_EMO,2,18,2,0.676773857,1,1,vertex,pre,5,1,0
D_EMO,2,1,3,0.38986801,1,0,vertex,pre,5,1,0
D_EMO,2,2,3,0.235317445,1,0,vertex,pre,5,1,0
D_EMO,2,3,3,0.418720584,1,0,vertex,pre,5,1,0
D_EMO,2,4,3,0.879848154,1,1,vertex,pre,5,1,0
D_EMO,2,5,3,1.190549156,1,0,vertex,pre,5,1,0
D_EMO,2,6,3,0.688228612,1,0,vertex,pre,5,1,0
D_EMO,2,7,3,0.63388869,1,1,vertex,pre,5,1,0
D_EMO,2,8,3,0.712506426,1,0,vertex,pre,5,1,0
D_EMO,2,9,3,1.070042737,1,0,vertex,pre,5,1,0
D_EMO,2,11,3,0.882812955,1,0,vertex,pre,5,1,0
D_EMO,2,12,3,0.57414038,1,1,vertex,pre,5,1,0
D_EMO,2,13,3,0.73198453,1,0,vertex,pre,5,1,0
D_EMO,2,14,3,0.788495052,1,0,vertex,pre,5,1,0
D_EMO,2,15,3,0.533849457,1,1,vertex,pre,5,1,0
D_EMO,2,16,3,0.404073871,1,0,vertex,pre,5,1,0
D_EMO,2,17,3,0.45112323,1,0,vertex,pre,5,1,0
D_EMO,2,18,3,0.489323779,1,1,vertex,pre,5,1,0
D_EMO,2,1,4,0.716417962,1,0,vertex,pre,5,1,0
D_EMO,2,2,4,0.700101895,1,0,vertex,pre,5,1,0
D_EMO,2,3,4,0.687954547,1,0,vertex,pre,5,1,0
D_EMO,2,4,4,0.776185483,1,1,vertex,pre,5,1,0
D_EMO,2,5,4,0.451123002,1,0,vertex,pre,5,1,0
D_EMO,2,6,4,0.921779911,1,0,vertex,pre,5,1,0
D_EMO,2,7,4,0.66649498,1,1,vertex,pre,5,1,0
D_EMO,2,8,4,1.428448919,1,0,vertex,pre,5,1,0
D_EMO,2,11,4,0.887136754,1,0,vertex,pre,5,1,0
D_EMO,2,13,4,0.925371038,1,0,vertex,pre,5,1,0
D_EMO,2,14,4,0.579129662,1,1,vertex,pre,5,1,0
D_EMO,2,15,4,0.742382226,1,0,vertex,pre,5,1,0
D_EMO,2,16,4,0.712969182,1,0,vertex,pre,5,1,0
D_EMO,2,17,4,0.573768524,1,0,vertex,pre,5,1,0
D_EMO,2,18,4,0.641380062,1,1,vertex,pre,5,1,0
D_EMO,0,1,1,0.406812804,1,1,vertex,post,3,1,0
D_EMO,0,2,1,0.434528511,1,0,vertex,post,3,1,0
D_EMO,0,3,1,0.354854185,1,1,vertex,post,3,1,0
D_EMO,0,4,1,0.337368301,1,0,vertex,post,3,1,0
D_EMO,0,5,1,0.36013001,1,0,vertex,post,3,1,0
D_EMO,0,6,1,0.3081557,1,1,vertex,post,3,1,0
D_EMO,0,7,1,0.304726347,1,0,vertex,post,3,1,0
D_EMO,0,8,1,0.427531763,1,0,vertex,post,3,1,0
D_EMO,0,9,1,0.358555064,1,1,vertex,post,3,1,0
D_EMO,0,10,1,0.315916828,1,0,vertex,post,3,1,0
D_EMO,0,11,1,0.28912557,1,0,vertex,post,3,1,0
D_EMO,0,12,1,0.30303046,1,0,vertex,post,3,1,0
D_EMO,0,13,1,0.27811852,1,0,vertex,post,3,1,0
D_EMO,0,14,1,0.27776163,1,0,vertex,post,3,1,0
D_EMO,0,15,1,0.243155273,1,0,vertex,post,3,1,0
D_EMO,0,16,1,0.405842688,1,1,vertex,post,3,1,0
D_EMO,0,17,1,0.300573252,1,0,vertex,post,3,1,0
D_EMO,0,1,2,0.588458885,1,1,vertex,post,3,1,0
D_EMO,0,2,2,0.294410893,1,0,vertex,post,3,1,0
D_EMO,0,3,2,0.28295239,1,1,vertex,post,3,1,0
D_EMO,0,4,2,0.240550112,1,0,vertex,post,3,1,0
D_EMO,0,5,2,0.331868887,1,0,vertex,post,3,1,0
D_EMO,0,6,2,0.355559027,1,1,vertex,post,3,1,0
D_EMO,0,7,2,0.340960302,1,0,vertex,post,3,1,0
D_EMO,0,8,2,0.305873806,1,0,vertex,post,3,1,0
D_EMO,0,9,2,0.39915096,1,1,vertex,post,3,1,0
D_EMO,0,10,2,0.299154708,1,0,vertex,post,3,1,0
D_EMO,0,11,2,0.288653477,1,0,vertex,post,3,1,0
D_EMO,0,12,2,0.42020967,1,0,vertex,post,3,1,0
D_EMO,0,13,2,0.335193288,1,0,vertex,post,3,1,0
D_EMO,0,14,2,0.37728858,1,0,vertex,post,3,1,0
D_EMO,0,15,2,0.31471994,1,0,vertex,post,3,1,0
D_EMO,0,16,2,0.36916392,1,1,vertex,post,3,1,0
D_EMO,0,17,2,0.28905446,1,0,vertex,post,3,1,0
D_EMO,0,18,2,0.444596198,1,1,vertex,post,3,1,0
D_EMO,0,1,3,0.530245853,1,1,vertex,post,3,1,0
D_EMO,0,2,3,0.277126591,1,0,vertex,post,3,1,0
D_EMO,0,3,3,0.356482135,1,1,vertex,post,3,1,0
D_EMO,0,4,3,0.252760752,1,0,vertex,post,3,1,0
D_EMO,0,5,3,0.265979602,1,0,vertex,post,3,1,0
D_EMO,0,6,3,0.425318995,1,1,vertex,post,3,1,0
D_EMO,0,7,3,0.276738115,1,0,vertex,post,3,1,0
D_EMO,0,8,3,0.269691285,1,0,vertex,post,3,1,0
D_EMO,0,9,3,0.379086886,1,1,vertex,post,3,1,0
D_EMO,0,10,3,0.222257832,1,0,vertex,post,3,1,0
D_EMO,0,11,3,0.259269213,1,0,vertex,post,3,1,0
D_EMO,0,12,3,0.282579403,1,0,vertex,post,3,1,0
D_EMO,0,13,3,0.288122326,1,0,vertex,post,3,1,0
D_EMO,0,14,3,0.35480769,1,0,vertex,post,3,1,0
D_EMO,0,15,3,0.242326928,1,0,vertex,post,3,1,0
D_EMO,0,17,3,0.259262598,1,0,vertex,post,3,1,0
D_EMO,0,18,3,0.407552854,1,1,vertex,post,3,1,0
D_EMO,0,1,4,0.525201738,1,1,vertex,post,3,1,0
D_EMO,0,2,4,0.366810696,1,0,vertex,post,3,1,0
D_EMO,0,3,4,0.279556802,1,1,vertex,post,3,1,0
D_EMO,0,4,4,0.253044775,1,0,vertex,post,3,1,0
D_EMO,0,5,4,0.408801574,1,0,vertex,post,3,1,0
D_EMO,0,6,4,0.311505988,1,1,vertex,post,3,1,0
D_EMO,0,7,4,0.249248778,1,0,vertex,post,3,1,0
D_EMO,0,8,4,0.343953401,1,0,vertex,post,3,1,0
D_EMO,0,9,4,0.3126354,1,1,vertex,post,3,1,0
D_EMO,0,10,4,0.321344784,1,0,vertex,post,3,1,0
D_EMO,0,11,4,0.321997663,1,0,vertex,post,3,1,0
D_EMO,0,12,4,0.263966015,1,0,vertex,post,3,1,0
D_EMO,0,13,4,0.325892268,1,0,vertex,post,3,1,0
D_EMO,0,14,4,0.263864893,1,0,vertex,post,3,1,0
D_EMO,0,15,4,0.289979568,1,0,vertex,post,3,1,0
D_EMO,0,16,4,0.411660608,1,1,vertex,post,3,1,0
D_EMO,0,17,4,0.24844932,1,0,vertex,post,3,1,0
D_EMO,0,18,4,0.499356728,1,1,vertex,post,3,1,0
D_EMO,1,1,1,0.290216183,1,0,vertex,post,3,1,0
D_EMO,1,2,1,0.445084522,1,1,vertex,post,3,1,0
D_EMO,1,3,1,0.3511705,1,0,vertex,post,3,1,0
D_EMO,1,4,1,0.514086765,1,0,vertex,post,3,1,0
D_EMO,1,6,1,0.52937575,1,0,vertex,post,3,1,0
D_EMO,1,7,1,0.541306075,1,1,vertex,post,3,1,0
D_EMO,1,8,1,0.420032296,1,0,vertex,post,3,1,0
D_EMO,1,9,1,0.500525905,1,0,vertex,post,3,1,0
D_EMO,1,10,1,0.386195012,1,1,vertex,post,3,1,0
D_EMO,1,11,1,0.38285067,1,0,vertex,post,3,1,0
D_EMO,1,12,1,0.656762904,1,1,vertex,post,3,1,0
D_EMO,1,13,1,0.664461905,1,0,vertex,post,3,1,0
D_EMO,1,14,1,0.3662055,1,0,vertex,post,3,1,0
D_EMO,1,15,1,0.433558062,1,0,vertex,post,3,1,0
D_EMO,1,16,1,0.417003804,1,0,vertex,post,3,1,0
D_EMO,1,17,1,0.323904217,1,0,vertex,post,3,1,0
D_EMO,1,1,2,0.507132062,1,0,vertex,post,3,1,0
D_EMO,1,2,2,0.303440201,1,0,vertex,post,3,1,0
D_EMO,1,4,2,0.471988641,1,0,vertex,post,3,1,0
D_EMO,1,5,2,0.346590759,1,1,vertex,post,3,1,0
D_EMO,1,6,2,0.430587041,1,0,vertex,post,3,1,0
D_EMO,1,8,2,0.577493885,1,1,vertex,post,3,1,0
D_EMO,1,9,2,0.389448563,1,0,vertex,post,3,1,0
D_EMO,1,10,2,0.367118665,1,0,vertex,post,3,1,0
D_EMO,1,12,2,0.56740342,1,0,vertex,post,3,1,0
D_EMO,1,13,2,0.357415696,1,0,vertex,post,3,1,0
D_EMO,1,14,2,0.442691767,1,1,vertex,post,3,1,0
D_EMO,1,15,2,0.465084157,1,0,vertex,post,3,1,0
D_EMO,1,16,2,0.3184217,1,1,vertex,post,3,1,0
D_EMO,1,17,2,0.27726492,1,0,vertex,post,3,1,0
D_EMO,1,18,2,0.386012806,1,0,vertex,post,3,1,0
D_EMO,1,1,3,0.296335584,1,0,vertex,post,3,1,0
D_EMO,1,2,3,0.549652034,1,1,vertex,post,3,1,0
D_EMO,1,3,3,0.568936656,1,0,vertex,post,3,1,0
D_EMO,1,4,3,0.30915355,1,0,vertex,post,3,1,0
D_EMO,1,5,3,0.43785558,1,0,vertex,post,3,1,0
D_EMO,1,6,3,0.312603926,1,1,vertex,post,3,1,0
D_EMO,1,7,3,0.25882934,1,0,vertex,post,3,1,0
D_EMO,1,8,3,0.346739829,1,0,vertex,post,3,1,0
D_EMO,1,9,3,0.42642181,1,1,vertex,post,3,1,0
D_EMO,1,10,3,0.223355786,1,0,vertex,post,3,1,0
D_EMO,1,11,3,0.360105231,1,1,vertex,post,3,1,0
D_EMO,1,12,3,0.341866928,1,0,vertex,post,3,1,0
D_EMO,1,13,3,0.391433585,1,0,vertex,post,3,1,0
D_EMO,1,14,3,0.29318478,1,0,vertex,post,3,1,0
D_EMO,1,15,3,0.293372318,1,0,vertex,post,3,1,0
D_EMO,1,16,3,0.395915285,1,1,vertex,post,3,1,0
D_EMO,1,17,3,0.29669124,1,0,vertex,post,3,1,0
D_EMO,1,18,3,0.42515875,1,1,vertex,post,3,1,0
D_EMO,1,1,4,0.53984529,1,0,vertex,post,3,1,0
D_EMO,1,2,4,0.35647493,1,0,vertex,post,3,1,0
D_EMO,1,3,4,0.391189977,1,1,vertex,post,3,1,0
D_EMO,1,4,4,0.385626005,1,0,vertex,post,3,1,0
D_EMO,1,5,4,0.437602866,1,1,vertex,post,3,1,0
D_EMO,1,6,4,0.373758488,1,0,vertex,post,3,1,0
D_EMO,1,8,4,0.433575123,1,0,vertex,post,3,1,0
D_EMO,1,9,4,0.432368776,1,0,vertex,post,3,1,0
D_EMO,1,11,4,0.488408189,1,1,vertex,post,3,1,0
D_EMO,1,12,4,0.33402878,1,0,vertex,post,3,1,0
D_EMO,1,13,4,0.316957643,1,0,vertex,post,3,1,0
D_EMO,1,14,4,0.273961099,1,1,vertex,post,3,1,0
D_EMO,1,15,4,0.492794638,1,0,vertex,post,3,1,0
D_EMO,1,16,4,0.298637842,1,0,vertex,post,3,1,0
D_EMO,1,17,4,0.292073484,1,0,vertex,post,3,1,0
D_EMO,1,18,4,0.513864206,1,1,vertex,post,3,1,0
D_EMO,2,1,1,0.451042502,1,0,vertex,post,3,1,0
D_EMO,2,2,1,0.715560953,1,0,vertex,post,3,1,0
D_EMO,2,4,1,0.931247812,1,1,vertex,post,3,1,0
D_EMO,2,5,1,0.900249372,1,0,vertex,post,3,1,0
D_EMO,2,6,1,0.702457932,1,0,vertex,post,3,1,0
D_EMO,2,7,1,0.528350333,1,1,vertex,post,3,1,0
D_EMO,2,8,1,0.514813433,1,0,vertex,post,3,1,0
D_EMO,2,9,1,0.591596558,1,0,vertex,post,3,1,0
D_EMO,2,10,1,0.847411892,1,1,vertex,post,3,1,0
D_EMO,2,11,1,0.696916185,1,0,vertex,post,3,1,0
D_EMO,2,12,1,0.840670982,1,1,vertex,post,3,1,0
D_EMO,2,13,1,0.374277416,1,0,vertex,post,3,1,0
D_EMO,2,14,1,0.583034516,1,0,vertex,post,3,1,0
D_EMO,2,15,1,0.766342301,1,1,vertex,post,3,1,0
D_EMO,2,16,1,0.67670509,1,0,vertex,post,3,1,0
D_EMO,2,17,1,0.558499509,1,0,vertex,post,3,1,0
D_EMO,2,1,2,0.268695313,1,0,vertex,post,3,1,0
D_EMO,2,2,2,0.430743456,1,0,vertex,post,3,1,0
D_EMO,2,3,2,0.660960328,1,1,vertex,post,3,1,0
D_EMO,2,4,2,0.584724582,1,0,vertex,post,3,1,0
D_EMO,2,5,2,0.567363555,1,1,vertex,post,3,1,0
D_EMO,2,6,2,0.670015041,1,0,vertex,post,3,1,0
D_EMO,2,7,2,0.581819826,1,0,vertex,post,3,1,0
D_EMO,2,8,2,0.55227101,1,1,vertex,post,3,1,0
D_EMO,2,9,2,0.646141185,1,0,vertex,post,3,1,0
D_EMO,2,10,2,1.36477304,1,0,vertex,post,3,1,0
D_EMO,2,11,2,0.827566494,1,1,vertex,post,3,1,0
D_EMO,2,12,2,0.723376306,1,0,vertex,post,3,1,0
D_EMO,2,13,2,0.389479835,1,1,vertex,post,3,1,0
D_EMO,2,14,2,0.492836992,1,0,vertex,post,3,1,0
D_EMO,2,15,2,0.521207064,1,0,vertex,post,3,1,0
D_EMO,2,17,2,0.71581769,1,0,vertex,post,3,1,0
D_EMO,2,18,2,0.479092683,1,1,vertex,post,3,1,0
D_EMO,2,1,3,0.792013528,1,0,vertex,post,3,1,0
D_EMO,2,2,3,0.275602866,1,0,vertex,post,3,1,0
D_EMO,2,3,3,0.510045812,1,0,vertex,post,3,1,0
D_EMO,2,4,3,0.731113099,1,1,vertex,post,3,1,0
D_EMO,2,5,3,0.99680578,1,0,vertex,post,3,1,0
D_EMO,2,6,3,1.07246455,1,0,vertex,post,3,1,0
D_EMO,2,7,3,0.657135992,1,1,vertex,post,3,1,0
D_EMO,2,8,3,0.460772532,1,0,vertex,post,3,1,0
D_EMO,2,9,3,0.423457223,1,0,vertex,post,3,1,0
D_EMO,2,10,3,0.592020802,1,1,vertex,post,3,1,0
D_EMO,2,11,3,0.648963728,1,0,vertex,post,3,1,0
D_EMO,2,12,3,1.018314136,1,1,vertex,post,3,1,0
D_EMO,2,13,3,0.889149626,1,0,vertex,post,3,1,0
D_EMO,2,14,3,0.841655923,1,1,vertex,post,3,1,0
D_EMO,2,15,3,0.485352148,1,0,vertex,post,3,1,0
D_EMO,2,17,3,0.6392366,1,0,vertex,post,3,1,0
D_EMO,2,1,4,0.532525877,1,0,vertex,post,3,1,0
D_EMO,2,2,4,0.597302812,1,0,vertex,post,3,1,0
D_EMO,2,3,4,0.60976795,1,1,vertex,post,3,1,0
D_EMO,2,4,4,0.404173559,1,0,vertex,post,3,1,0
D_EMO,2,5,4,0.521109453,1,0,vertex,post,3,1,0
D_EMO,2,6,4,0.551525842,1,1,vertex,post,3,1,0
D_EMO,2,7,4,0.49432247,1,0,vertex,post,3,1,0
D_EMO,2,8,4,0.717757176,1,1,vertex,post,3,1,0
D_EMO,2,9,4,0.93454232,1,0,vertex,post,3,1,0
D_EMO,2,10,4,1.209584127,1,0,vertex,post,3,1,0
D_EMO,2,11,4,0.722130813,1,1,vertex,post,3,1,0
D_EMO,2,12,4,0.545747663,1,0,vertex,post,3,1,0
D_EMO,2,13,4,0.421744704,1,0,vertex,post,3,1,0
D_EMO,2,14,4,0.887971595,1,0,vertex,post,3,1,0
D_EMO,2,15,4,0.666501048,1,1,vertex,post,3,1,0
D_EMO,2,16,4,0.469975068,1,0,vertex,post,3,1,0
D_HTY,0,1,1,0.51346422,1,1,DAN,pre,3,3,69
D_HTY,0,2,1,0.368868721,1,0,DAN,pre,3,3,69
D_HTY,0,3,1,0.426120499,1,1,DAN,pre,3,3,69
D_HTY,0,4,1,0.365540069,1,0,DAN,pre,3,3,69
D_HTY,0,5,1,0.392117923,1,0,DAN,pre,3,3,69
D_HTY,0,6,1,0.40397544,1,1,DAN,pre,3,3,69
D_HTY,0,7,1,0.399882955,1,0,DAN,pre,3,3,69
D_HTY,0,8,1,0.4900239,1,0,DAN,pre,3,3,69
D_HTY,0,9,1,0.416067853,1,1,DAN,pre,3,3,69
D_HTY,0,10,1,0.358114885,1,0,DAN,pre,3,3,69
D_HTY,0,11,1,0.414895796,1,0,DAN,pre,3,3,69
D_HTY,0,12,1,0.403797659,1,0,DAN,pre,3,3,69
D_HTY,0,13,1,0.376752709,1,0,DAN,pre,3,3,69
D_HTY,0,14,1,0.35712826,1,0,DAN,pre,3,3,69
D_HTY,0,15,1,0.360167333,1,0,DAN,pre,3,3,69
D_HTY,0,16,1,0.338212155,1,1,DAN,pre,3,3,69
D_HTY,0,17,1,0.353942096,1,0,DAN,pre,3,3,69
D_HTY,0,18,1,0.47012593,1,1,DAN,pre,3,3,69
D_HTY,0,1,2,0.469096349,1,1,DAN,pre,3,3,69
D_HTY,0,2,2,0.334525572,1,0,DAN,pre,3,3,69
D_HTY,0,3,2,0.370518458,1,1,DAN,pre,3,3,69
D_HTY,0,4,2,0.332151912,1,0,DAN,pre,3,3,69
D_HTY,0,5,2,0.376658728,1,0,DAN,pre,3,3,69
D_HTY,0,6,2,0.436510176,1,1,DAN,pre,3,3,69
D_HTY,0,7,2,0.341412876,1,0,DAN,pre,3,3,69
D_HTY,0,8,2,0.34186513,1,0,DAN,pre,3,3,69
D_HTY,0,9,2,0.412577699,1,1,DAN,pre,3,3,69
D_HTY,0,10,2,0.358079971,1,0,DAN,pre,3,3,69
D_HTY,0,11,2,0.338873239,1,0,DAN,pre,3,3,69
D_HTY,0,12,2,0.367301073,1,0,DAN,pre,3,3,69
D_HTY,0,13,2,0.406186472,1,0,DAN,pre,3,3,69
D_HTY,0,14,2,0.479087722,1,0,DAN,pre,3,3,69
D_HTY,0,15,2,0.38384809,1,0,DAN,pre,3,3,69
D_HTY,0,16,2,0.270289646,1,1,DAN,pre,3,3,69
D_HTY,0,17,2,0.311114238,1,0,DAN,pre,3,3,69
D_HTY,0,18,2,0.265671665,1,1,DAN,pre,3,3,69
D_HTY,0,1,3,0.400317256,1,1,DAN,pre,3,3,69
D_HTY,0,2,3,0.299652976,1,0,DAN,pre,3,3,69
D_HTY,0,3,3,0.401629879,1,1,DAN,pre,3,3,69
D_HTY,0,4,3,0.337333404,1,0,DAN,pre,3,3,69
D_HTY,0,5,3,0.376748319,1,0,DAN,pre,3,3,69
D_HTY,0,7,3,0.426941729,1,0,DAN,pre,3,3,69
D_HTY,0,8,3,0.435158602,1,0,DAN,pre,3,3,69
D_HTY,0,9,3,0.428309326,1,1,DAN,pre,3,3,69
D_HTY,0,10,3,0.322883021,1,0,DAN,pre,3,3,69
D_HTY,0,11,3,0.506700627,1,0,DAN,pre,3,3,69
D_HTY,0,12,3,0.412286388,1,0,DAN,pre,3,3,69
D_HTY,0,13,3,0.401612927,1,0,DAN,pre,3,3,69
D_HTY,0,14,3,0.310213866,1,0,DAN,pre,3,3,69
D_HTY,0,15,3,0.413354286,1,0,DAN,pre,3,3,69
D_HTY,0,16,3,0.367134825,1,1,DAN,pre,3,3,69
D_HTY,0,17,3,0.364065779,1,0,DAN,pre,3,3,69
D_HTY,0,18,3,0.404275595,1,1,DAN,pre,3,3,69
D_HTY,0,1,4,0.254969739,1,1,DAN,pre,3,3,69
D_HTY,0,2,4,0.286228354,1,0,DAN,pre,3,3,69
D_HTY,0,3,4,0.328241622,1,1,DAN,pre,3,3,69
D_HTY,0,4,4,0.341096323,1,0,DAN,pre,3,3,69
D_HTY,0,5,4,0.354540814,1,0,DAN,pre,3,3,69
D_HTY,0,6,4,0.417341153,1,1,DAN,pre,3,3,69
D_HTY,0,7,4,0.309554377,1,0,DAN,pre,3,3,69
D_HTY,0,8,4,0.35709646,1,0,DAN,pre,3,3,69
D_HTY,0,9,4,0.382011811,1,1,DAN,pre,3,3,69
D_HTY,0,10,4,0.284587388,1,0,DAN,pre,3,3,69
D_HTY,0,11,4,0.342970775,1,0,DAN,pre,3,3,69
D_HTY,0,12,4,0.418830298,1,0,DAN,pre,3,3,69
D_HTY,0,13,4,0.45538004,1,0,DAN,pre,3,3,69
D_HTY,0,14,4,0.35255849,1,0,DAN,pre,3,3,69
D_HTY,0,15,4,0.357471057,1,0,DAN,pre,3,3,69
D_HTY,0,16,4,0.253210751,1,1,DAN,pre,3,3,69
D_HTY,0,17,4,0.381587952,1,0,DAN,pre,3,3,69
D_HTY,0,18,4,0.331674803,1,1,DAN,pre,3,3,69
D_HTY,1,1,1,0.280910188,1,0,DAN,pre,3,3,69
D_HTY,1,2,1,0.350517927,1,1,DAN,pre,3,3,69
D_HTY,1,3,1,0.378223711,1,0,DAN,pre,3,3,69
D_HTY,1,4,1,0.395762784,1,0,DAN,pre,3,3,69
D_HTY,1,5,1,0.438354512,1,1,DAN,pre,3,3,69
D_HTY,1,6,1,0.365186652,1,0,DAN,pre,3,3,69
D_HTY,1,7,1,0.36777888,1,1,DAN,pre,3,3,69
D_HTY,1,8,1,0.391324905,1,0,DAN,pre,3,3,69
D_HTY,1,9,1,0.32621961,1,0,DAN,pre,3,3,69
D_HTY,1,11,1,0.33621636,1,0,DAN,pre,3,3,69
D_HTY,1,12,1,0.483414871,1,1,DAN,pre,3,3,69
D_HTY,1,13,1,0.690195526,1,0,DAN,pre,3,3,69
D_HTY,1,14,1,0.510023463,1,0,DAN,pre,3,3,69
D_HTY,1,15,1,0.484005715,1,0,DAN,pre,3,3,69
D_HTY,1,16,1,0.441317377,1,0,DAN,pre,3,3,69
D_HTY,1,17,1,0.598188618,1,0,DAN,pre,3,3,69
D_HTY,1,18,1,0.551718278,1,1,DAN,pre,3,3,69
D_HTY,1,1,2,0.388908472,1,0,DAN,pre,3,3,69
D_HTY,1,2,2,0.409009995,1,0,DAN,pre,3,3,69
D_HTY,1,3,2,0.440004932,1,1,DAN,pre,3,3,69
D_HTY,1,4,2,0.258113146,1,0,DAN,pre,3,3,69
D_HTY,1,5,2,0.34196616,1,1,DAN,pre,3,3,69
D_HTY,1,6,2,0.2754934,1,0,DAN,pre,3,3,69
D_HTY,1,7,2,0.443255784,1,0,DAN,pre,3,3,69
D_HTY,1,8,2,0.477953218,1,1,DAN,pre,3,3,69
D_HTY,1,9,2,0.4621124,1,0,DAN,pre,3,3,69
D_HTY,1,10,2,0.67772742,1,0,DAN,pre,3,3,69
D_HTY,1,11,2,0.308503841,1,1,DAN,pre,3,3,69
D_HTY,1,12,2,0.339281604,1,0,DAN,pre,3,3,69
D_HTY,1,13,2,0.75424208,1,0,DAN,pre,3,3,69
D_HTY,1,14,2,0.339637128,1,1,DAN,pre,3,3,69
D_HTY,1,15,2,0.300554502,1,0,DAN,pre,3,3,69
D_HTY,1,16,2,0.48977577,1,1,DAN,pre,3,3,69
D_HTY,1,17,2,0.308716844,1,0,DAN,pre,3,3,69
D_HTY,1,1,3,0.348643389,1,0,DAN,pre,3,3,69
D_HTY,1,2,3,0.353009312,1,1,DAN,pre,3,3,69
D_HTY,1,3,3,0.259578698,1,0,DAN,pre,3,3,69
D_HTY,1,4,3,0.428317102,1,0,DAN,pre,3,3,69
D_HTY,1,5,3,0.467967594,1,0,DAN,pre,3,3,69
D_HTY,1,6,3,0.437757682,1,1,DAN,pre,3,3,69
D_HTY,1,7,3,0.677162226,1,0,DAN,pre,3,3,69
D_HTY,1,8,3,0.528777018,1,0,DAN,pre,3,3,69
D_HTY,1,9,3,0.370648659,1,1,DAN,pre,3,3,69
D_HTY,1,10,3,0.320413998,1,0,DAN,pre,3,3,69
D_HTY,1,11,3,0.416453209,1,1,DAN,pre,3,3,69
D_HTY,1,12,3,0.383662914,1,0,DAN,pre,3,3,69
D_HTY,1,13,3,0.48526693,1,0,DAN,pre,3,3,69
D_HTY,1,14,3,0.452035435,1,0,DAN,pre,3,3,69
D_HTY,1,15,3,0.512777596,1,0,DAN,pre,3,3,69
D_HTY,1,16,3,0.60049918,1,1,DAN,pre,3,3,69
D_HTY,1,17,3,0.353483876,1,0,DAN,pre,3,3,69
D_HTY,1,18,3,0.353461444,1,1,DAN,pre,3,3,69
D_HTY,1,1,4,0.468271172,1,0,DAN,pre,3,3,69
D_HTY,1,2,4,0.403056812,1,0,DAN,pre,3,3,69
D_HTY,1,3,4,0.502596638,1,1,DAN,pre,3,3,69
D_HTY,1,4,4,0.385290316,1,0,DAN,pre,3,3,69
D_HTY,1,5,4,0.727540733,1,1,DAN,pre,3,3,69
D_HTY,1,6,4,0.306832068,1,0,DAN,pre,3,3,69
D_HTY,1,7,4,0.40958953,1,1,DAN,pre,3,3,69
D_HTY,1,8,4,0.279821644,1,0,DAN,pre,3,3,69
D_HTY,1,9,4,0.440162429,1,0,DAN,pre,3,3,69
D_HTY,1,10,4,0.428751256,1,0,DAN,pre,3,3,69
D_HTY,1,11,4,0.523629328,1,1,DAN,pre,3,3,69
D_HTY,1,12,4,0.378009986,1,0,DAN,pre,3,3,69
D_HTY,1,13,4,0.662787355,1,0,DAN,pre,3,3,69
D_HTY,1,14,4,0.81206636,1,1,DAN,pre,3,3,69
D_HTY,1,15,4,0.476211472,1,0,DAN,pre,3,3,69
D_HTY,1,16,4,0.47713036,1,0,DAN,pre,3,3,69
D_HTY,1,17,4,0.400416572,1,0,DAN,pre,3,3,69
D_HTY,1,18,4,0.420592238,1,1,DAN,pre,3,3,69
D_HTY,2,1,1,0.536990631,1,0,DAN,pre,3,3,69
D_HTY,2,2,1,0.464501301,1,0,DAN,pre,3,3,69
D_HTY,2,3,1,0.457088493,1,0,DAN,pre,3,3,69
D_HTY,2,4,1,0.347714125,1,1,DAN,pre,3,3,69
D_HTY,2,5,1,0.449521822,1,0,DAN,pre,3,3,69
D_HTY,2,6,1,0.467752904,1,0,DAN,pre,3,3,69
D_HTY,2,7,1,0.358569934,1,1,DAN,pre,3,3,69
D_HTY,2,8,1,0.542365564,1,0,DAN,pre,3,3,69
D_HTY,2,9,1,0.590121793,1,0,DAN,pre,3,3,69
D_HTY,2,10,1,0.78767516,1,1,DAN,pre,3,3,69
D_HTY,2,11,1,0.436262651,1,0,DAN,pre,3,3,69
D_HTY,2,12,1,0.335879067,1,1,DAN,pre,3,3,69
D_HTY,2,13,1,0.376387278,1,0,DAN,pre,3,3,69
D_HTY,2,14,1,0.74899098,1,0,DAN,pre,3,3,69
D_HTY,2,15,1,0.577676953,1,1,DAN,pre,3,3,69
D_HTY,2,16,1,0.70436005,1,0,DAN,pre,3,3,69
D_HTY,2,17,1,0.645539197,1,0,DAN,pre,3,3,69
D_HTY,2,18,1,0.355047192,1,1,DAN,pre,3,3,69
D_HTY,2,1,2,0.302080274,1,0,DAN,pre,3,3,69
D_HTY,2,2,2,0.417129056,1,0,DAN,pre,3,3,69
D_HTY,2,3,2,0.725615477,1,1,DAN,pre,3,3,69
D_HTY,2,4,2,1.279427586,1,0,DAN,pre,3,3,69
D_HTY,2,5,2,0.782073182,1,1,DAN,pre,3,3,69
D_HTY,2,6,2,0.744848016,1,0,DAN,pre,3,3,69
D_HTY,2,7,2,0.738216072,1,0,DAN,pre,3,3,69
D_HTY,2,8,2,0.360929743,1,1,DAN,pre,3,3,69
D_HTY,2,9,2,1.137807889,1,0,DAN,pre,3,3,69
D_HTY,2,10,2,0.716215194,1,0,DAN,pre,3,3,69
D_HTY,2,11,2,0.961430213,1,1,DAN,pre,3,3,69
D_HTY,2,12,2,0.593211341,1,0,DAN,pre,3,3,69
D_HTY,2,13,2,0.386860261,1,1,DAN,pre,3,3,69
D_HTY,2,14,2,0.685971079,1,0,DAN,pre,3,3,69
D_HTY,2,15,2,1.1464449,1,0,DAN,pre,3,3,69
D_HTY,2,16,2,0.783475308,1,0,DAN,pre,3,3,69
D_HTY,2,17,2,0.891720484,1,0,DAN,pre,3,3,69
D_HTY,2,18,2,0.401681738,1,1,DAN,pre,3,3,69
D_HTY,2,1,3,0.386836069,1,0,DAN,pre,3,3,69
D_HTY,2,2,3,0.324578162,1,0,DAN,pre,3,3,69
D_HTY,2,3,3,0.48625847,1,0,DAN,pre,3,3,69
D_HTY,2,4,3,0.498537755,1,1,DAN,pre,3,3,69
D_HTY,2,5,3,1.36108565,1,0,DAN,pre,3,3,69
D_HTY,2,6,3,0.59209523,1,0,DAN,pre,3,3,69
D_HTY,2,7,3,0.4172052,1,1,DAN,pre,3,3,69
D_HTY,2,8,3,0.729245367,1,0,DAN,pre,3,3,69
D_HTY,2,9,3,0.605541378,1,0,DAN,pre,3,3,69
D_HTY,2,10,3,0.715243771,1,1,DAN,pre,3,3,69
D_HTY,2,11,3,1.879480451,1,0,DAN,pre,3,3,69
D_HTY,2,13,3,0.656149893,1,0,DAN,pre,3,3,69
D_HTY,2,14,3,0.472749308,1,1,DAN,pre,3,3,69
D_HTY,2,15,3,0.955765778,1,0,DAN,pre,3,3,69
D_HTY,2,16,3,0.680353641,1,0,DAN,pre,3,3,69
D_HTY,2,17,3,0.554993761,1,0,DAN,pre,3,3,69
D_HTY,2,18,3,0.460166303,1,1,DAN,pre,3,3,69
D_HTY,2,1,4,0.37174964,1,0,DAN,pre,3,3,69
D_HTY,2,2,4,0.382325415,1,0,DAN,pre,3,3,69
D_HTY,2,3,4,0.79832809,1,1,DAN,pre,3,3,69
D_HTY,2,4,4,0.69796237,1,0,DAN,pre,3,3,69
D_HTY,2,5,4,0.808258199,1,0,DAN,pre,3,3,69
D_HTY,2,6,4,0.493222901,1,1,DAN,pre,3,3,69
D_HTY,2,7,4,0.573440294,1,0,DAN,pre,3,3,69
D_HTY,2,8,4,0.484653986,1,1,DAN,pre,3,3,69
D_HTY,2,9,4,0.792551214,1,0,DAN,pre,3,3,69
D_HTY,2,10,4,0.669506822,1,0,DAN,pre,3,3,69
D_HTY,2,11,4,0.549851244,1,1,DAN,pre,3,3,69
D_HTY,2,12,4,1.00656329,1,0,DAN,pre,3,3,69
D_HTY,2,13,4,1.626112524,1,0,DAN,pre,3,3,69
D_HTY,2,14,4,0.825543911,1,0,DAN,pre,3,3,69
D_HTY,2,15,4,0.583608391,1,1,DAN,pre,3,3,69
D_HTY,2,16,4,1.119172667,1,0,DAN,pre,3,3,69
D_HTY,2,17,4,0.932032754,1,0,DAN,pre,3,3,69
D_HTY,2,18,4,0.692550805,1,1,DAN,pre,3,3,69
D_HTY,0,1,1,0.377581692,1,0,DAN,post,4,3,69
D_HTY,0,2,1,0.33812897,1,0,DAN,post,4,3,69
D_HTY,0,3,1,0.310713897,1,0,DAN,post,4,3,69
D_HTY,0,4,1,0.31051592,1,0,DAN,post,4,3,69
D_HTY,0,5,1,0.248489183,1,1,DAN,post,4,3,69
D_HTY,0,6,1,0.296066246,1,0,DAN,post,4,3,69
D_HTY,0,7,1,0.256669693,1,1,DAN,post,4,3,69
D_HTY,0,8,1,0.339657927,1,0,DAN,post,4,3,69
D_HTY,0,9,1,0.367728814,1,0,DAN,post,4,3,69
D_HTY,0,10,1,0.423508613,1,0,DAN,post,4,3,69
D_HTY,0,11,1,0.406241511,1,0,DAN,post,4,3,69
D_HTY,0,12,1,0.387734734,1,1,DAN,post,4,3,69
D_HTY,0,13,1,0.295694777,1,0,DAN,post,4,3,69
D_HTY,0,14,1,0.300171936,1,1,DAN,post,4,3,69
D_HTY,0,15,1,0.323983203,1,0,DAN,post,4,3,69
D_HTY,0,16,1,0.348244271,1,1,DAN,post,4,3,69
D_HTY,0,17,1,0.272074866,1,0,DAN,post,4,3,69
D_HTY,0,18,1,0.265808517,1,1,DAN,post,4,3,69
D_HTY,0,1,2,0.35796363,1,0,DAN,post,4,3,69
D_HTY,0,2,2,0.36377191,1,0,DAN,post,4,3,69
D_HTY,0,3,2,0.314539614,1,0,DAN,post,4,3,69
D_HTY,0,4,2,0.407084882,1,0,DAN,post,4,3,69
D_HTY,0,5,2,0.310629073,1,1,DAN,post,4,3,69
D_HTY,0,6,2,0.328209772,1,0,DAN,post,4,3,69
D_HTY,0,7,2,0.280340475,1,1,DAN,post,4,3,69
D_HTY,0,8,2,0.390524132,1,0,DAN,post,4,3,69
D_HTY,0,9,2,0.409334958,1,0,DAN,post,4,3,69
D_HTY,0,10,2,0.380203534,1,0,DAN,post,4,3,69
D_HTY,0,11,2,0.364887605,1,0,DAN,post,4,3,69
D_HTY,0,12,2,0.346460728,1,1,DAN,post,4,3,69
D_HTY,0,13,2,0.385899564,1,0,DAN,post,4,3,69
D_HTY,0,14,2,0.44160517,1,1,DAN,post,4,3,69
D_HTY,0,15,2,0.298261107,1,0,DAN,post,4,3,69
D_HTY,0,16,2,0.417879096,1,1,DAN,post,4,3,69
D_HTY,0,17,2,0.374497848,1,0,DAN,post,4,3,69
D_HTY,0,18,2,0.46309766,1,1,DAN,post,4,3,69
D_HTY,0,1,3,0.299165802,1,0,DAN,post,4,3,69
D_HTY,0,2,3,0.41612221,1,0,DAN,post,4,3,69
D_HTY,0,3,3,0.351487857,1,0,DAN,post,4,3,69
D_HTY,0,4,3,0.370861518,1,0,DAN,post,4,3,69
D_HTY,0,5,3,0.313405954,1,1,DAN,post,4,3,69
D_HTY,0,6,3,0.395143786,1,0,DAN,post,4,3,69
D_HTY,0,7,3,0.294596639,1,1,DAN,post,4,3,69
D_HTY,0,8,3,0.346545763,1,0,DAN,post,4,3,69
D_HTY,0,9,3,0.510567548,1,0,DAN,post,4,3,69
D_HTY,0,10,3,0.372763448,1,0,DAN,post,4,3,69
D_HTY,0,11,3,0.412683444,1,0,DAN,post,4,3,69
D_HTY,0,12,3,0.435101313,1,1,DAN,post,4,3,69
D_HTY,0,13,3,0.269219722,1,0,DAN,post,4,3,69
D_HTY,0,14,3,0.408639416,1,1,DAN,post,4,3,69
D_HTY,0,15,3,0.332138671,1,0,DAN,post,4,3,69
D_HTY,0,16,3,0.33168422,1,1,DAN,post,4,3,69
D_HTY,0,17,3,0.29946183,1,0,DAN,post,4,3,69
D_HTY,0,18,3,0.420420475,1,1,DAN,post,4,3,69
D_HTY,0,1,4,0.34905928,1,0,DAN,post,4,3,69
D_HTY,0,2,4,0.389476104,1,0,DAN,post,4,3,69
D_HTY,0,3,4,0.380292486,1,0,DAN,post,4,3,69
D_HTY,0,4,4,0.34153736,1,0,DAN,post,4,3,69
D_HTY,0,5,4,0.375609783,1,1,DAN,post,4,3,69
D_HTY,0,6,4,0.41201193,1,0,DAN,post,4,3,69
D_HTY,0,7,4,0.373884625,1,1,DAN,post,4,3,69
D_HTY,0,8,4,0.288300265,1,0,DAN,post,4,3,69
D_HTY,0,9,4,0.384050766,1,0,DAN,post,4,3,69
D_HTY,0,10,4,0.463816385,1,0,DAN,post,4,3,69
D_HTY,0,11,4,0.388694034,1,0,DAN,post,4,3,69
D_HTY,0,13,4,0.372850387,1,0,DAN,post,4,3,69
D_HTY,0,14,4,0.43425086,1,1,DAN,post,4,3,69
D_HTY,0,15,4,0.393755151,1,0,DAN,post,4,3,69
D_HTY,0,16,4,0.424088054,1,1,DAN,post,4,3,69
D_HTY,0,17,4,0.390408286,1,0,DAN,post,4,3,69
D_HTY,0,18,4,0.438834774,1,1,DAN,post,4,3,69
D_HTY,1,1,1,0.386108944,1,0,DAN,post,4,3,69
D_HTY,1,2,1,0.36955595,1,0,DAN,post,4,3,69
D_HTY,1,3,1,0.406652575,1,1,DAN,post,4,3,69
D_HTY,1,4,1,0.27037046,1,0,DAN,post,4,3,69
D_HTY,1,5,1,0.329095972,1,1,DAN,post,4,3,69
D_HTY,1,6,1,0.322379035,1,0,DAN,post,4,3,69
D_HTY,1,7,1,0.367168025,1,0,DAN,post,4,3,69
D_HTY,1,9,1,0.407636238,1,0,DAN,post,4,3,69
D_HTY,1,10,1,0.588484662,1,0,DAN,post,4,3,69
D_HTY,1,11,1,0.368988557,1,1,DAN,post,4,3,69
D_HTY,1,12,1,0.421929514,1,0,DAN,post,4,3,69
D_HTY,1,13,1,0.427464012,1,0,DAN,post,4,3,69
D_HTY,1,14,1,0.337500534,1,1,DAN,post,4,3,69
D_HTY,1,15,1,0.380913008,1,0,DAN,post,4,3,69
D_HTY,1,16,1,0.472900455,1,1,DAN,post,4,3,69
D_HTY,1,17,1,0.39983788,1,0,DAN,post,4,3,69
D_HTY,1,18,1,0.511173514,1,0,DAN,post,4,3,69
D_HTY,1,1,2,0.30962091,1,0,DAN,post,4,3,69
D_HTY,1,2,2,0.587976747,1,1,DAN,post,4,3,69
D_HTY,1,3,2,0.582714272,1,0,DAN,post,4,3,69
D_HTY,1,4,2,0.768041742,1,0,DAN,post,4,3,69
D_HTY,1,5,2,0.632685395,1,0,DAN,post,4,3,69
D_HTY,1,6,2,0.404377903,1,1,DAN,post,4,3,69
D_HTY,1,7,2,0.25541658,1,0,DAN,post,4,3,69
D_HTY,1,8,2,0.422995588,1,0,DAN,post,4,3,69
D_HTY,1,9,2,0.35282304,1,1,DAN,post,4,3,69
D_HTY,1,10,2,0.28737661,1,0,DAN,post,4,3,69
D_HTY,1,11,2,0.386782635,1,1,DAN,post,4,3,69
D_HTY,1,12,2,0.265031308,1,0,DAN,post,4,3,69
D_HTY,1,13,2,0.579304213,1,0,DAN,post,4,3,69
D_HTY,1,14,2,0.542160012,1,0,DAN,post,4,3,69
D_HTY,1,15,2,0.437318839,1,0,DAN,post,4,3,69
D_HTY,1,16,2,0.436969628,1,1,DAN,post,4,3,69
D_HTY,1,17,2,0.378639695,1,0,DAN,post,4,3,69
D_HTY,1,18,2,0.535445282,1,1,DAN,post,4,3,69
D_HTY,1,1,3,0.459104981,1,0,DAN,post,4,3,69
D_HTY,1,2,3,0.670584631,1,0,DAN,post,4,3,69
D_HTY,1,3,3,0.459243905,1,1,DAN,post,4,3,69
D_HTY,1,4,3,0.281185386,1,0,DAN,post,4,3,69
D_HTY,1,5,3,0.393599356,1,1,DAN,post,4,3,69
D_HTY,1,6,3,0.667026756,1,0,DAN,post,4,3,69
D_HTY,1,8,3,0.933506343,1,0,DAN,post,4,3,69
D_HTY,1,9,3,0.759931158,1,0,DAN,post,4,3,69
D_HTY,1,10,3,0.582911822,1,0,DAN,post,4,3,69
D_HTY,1,11,3,0.499510883,1,1,DAN,post,4,3,69
D_HTY,1,12,3,1.012336586,1,0,DAN,post,4,3,69
D_HTY,1,13,3,0.900059384,1,0,DAN,post,4,3,69
D_HTY,1,14,3,0.614872109,1,1,DAN,post,4,3,69
D_HTY,1,15,3,0.727800226,1,0,DAN,post,4,3,69
D_HTY,1,16,3,0.397472528,1,0,DAN,post,4,3,69
D_HTY,1,17,3,0.469471752,1,0,DAN,post,4,3,69
D_HTY,1,18,3,0.404202457,1,1,DAN,post,4,3,69
D_HTY,1,1,4,0.51180377,1,0,DAN,post,4,3,69
D_HTY,1,2,4,0.491323325,1,1,DAN,post,4,3,69
D_HTY,1,3,4,0.258488794,1,0,DAN,post,4,3,69
D_HTY,1,4,4,0.472058663,1,0,DAN,post,4,3,69
D_HTY,1,5,4,0.3666478,1,1,DAN,post,4,3,69
D_HTY,1,6,4,0.377560357,1,0,DAN,post,4,3,69
D_HTY,1,7,4,0.421826675,1,1,DAN,post,4,3,69
D_HTY,1,8,4,0.329553092,1,0,DAN,post,4,3,69
D_HTY,1,9,4,0.578196718,1,0,DAN,post,4,3,69
D_HTY,1,10,4,0.473872957,1,1,DAN,post,4,3,69
D_HTY,1,11,4,0.73883429,1,0,DAN,post,4,3,69
D_HTY,1,12,4,0.801752172,1,1,DAN,post,4,3,69
D_HTY,1,13,4,0.573817957,1,0,DAN,post,4,3,69
D_HTY,1,14,4,0.58280587,1,0,DAN,post,4,3,69
D_HTY,1,15,4,0.493072954,1,0,DAN,post,4,3,69
D_HTY,1,16,4,0.567614556,1,0,DAN,post,4,3,69
D_HTY,1,17,4,0.536305737,1,0,DAN,post,4,3,69
D_HTY,1,18,4,0.448788213,1,1,DAN,post,4,3,69
D_HTY,2,1,1,0.341803086,1,0,DAN,post,4,3,69
D_HTY,2,2,1,0.29943913,1,0,DAN,post,4,3,69
D_HTY,2,3,1,0.374651285,1,1,DAN,post,4,3,69
D_HTY,2,4,1,0.68003585,1,0,DAN,post,4,3,69
D_HTY,2,5,1,0.406609655,1,1,DAN,post,4,3,69
D_HTY,2,6,1,0.359129216,1,0,DAN,post,4,3,69
D_HTY,2,7,1,0.720860193,1,0,DAN,post,4,3,69
D_HTY,2,8,1,1.06779743,1,1,DAN,post,4,3,69
D_HTY,2,9,1,0.938187563,1,0,DAN,post,4,3,69
D_HTY,2,10,1,0.794872434,1,0,DAN,post,4,3,69
D_HTY,2,11,1,0.62050479,1,1,DAN,post,4,3,69
D_HTY,2,12,1,0.433633087,1,0,DAN,post,4,3,69
D_HTY,2,13,1,0.427771784,1,1,DAN,post,4,3,69
D_HTY,2,14,1,0.526868525,1,0,DAN,post,4,3,69
D_HTY,2,15,1,1.123234995,1,0,DAN,post,4,3,69
D_HTY,2,16,1,0.617583545,1,0,DAN,post,4,3,69
D_HTY,2,17,1,0.618434006,1,0,DAN,post,4,3,69
D_HTY,2,18,1,0.581971942,1,1,DAN,post,4,3,69
D_HTY,2,1,2,0.330194529,1,0,DAN,post,4,3,69
D_HTY,2,2,2,0.431114736,1,0,DAN,post,4,3,69
D_HTY,2,3,2,0.94938832,1,0,DAN,post,4,3,69
D_HTY,2,4,2,0.638944292,1,1,DAN,post,4,3,69
D_HTY,2,5,2,0.502976744,1,0,DAN,post,4,3,69
D_HTY,2,6,2,1.003292794,1,0,DAN,post,4,3,69
D_HTY,2,7,2,0.54599972,1,1,DAN,post,4,3,69
D_HTY,2,8,2,0.516650375,1,0,DAN,post,4,3,69
D_HTY,2,9,2,0.506418315,1,0,DAN,post,4,3,69
D_HTY,2,10,2,0.397936079,1,1,DAN,post,4,3,69
D_HTY,2,11,2,0.457831071,1,0,DAN,post,4,3,69
D_HTY,2,12,2,0.830445904,1,1,DAN,post,4,3,69
D_HTY,2,13,2,0.626007144,1,0,DAN,post,4,3,69
D_HTY,2,14,2,0.623121152,1,1,DAN,post,4,3,69
D_HTY,2,15,2,1.170696147,1,0,DAN,post,4,3,69
D_HTY,2,16,2,1.150118157,1,0,DAN,post,4,3,69
D_HTY,2,17,2,1.18773479,1,0,DAN,post,4,3,69
D_HTY,2,18,2,0.597485065,1,1,DAN,post,4,3,69
D_HTY,2,1,3,0.337490354,1,0,DAN,post,4,3,69
D_HTY,2,2,3,0.543835708,1,0,DAN,post,4,3,69
D_HTY,2,3,3,0.372889236,1,1,DAN,post,4,3,69
D_HTY,2,4,3,0.755410727,1,0,DAN,post,4,3,69
D_HTY,2,5,3,0.495978131,1,0,DAN,post,4,3,69
D_HTY,2,6,3,0.383614207,1,1,DAN,post,4,3,69
D_HTY,2,7,3,0.440407698,1,0,DAN,post,4,3,69
D_HTY,2,8,3,0.54653446,1,1,DAN,post,4,3,69
D_HTY,2,9,3,0.307785638,1,0,DAN,post,4,3,69
D_HTY,2,10,3,0.465468716,1,0,DAN,post,4,3,69
D_HTY,2,11,3,0.993288123,1,1,DAN,post,4,3,69
D_HTY,2,12,3,0.383614403,1,0,DAN,post,4,3,69
D_HTY,2,13,3,0.45209808,1,0,DAN,post,4,3,69
D_HTY,2,14,3,0.580162832,1,0,DAN,post,4,3,69
D_HTY,2,15,3,0.463993102,1,1,DAN,post,4,3,69
D_HTY,2,16,3,0.825067959,1,0,DAN,post,4,3,69
D_HTY,2,17,3,0.92881115,1,0,DAN,post,4,3,69
D_HTY,2,18,3,0.844868463,1,1,DAN,post,4,3,69
D_HTY,2,1,4,0.362486621,1,0,DAN,post,4,3,69
D_HTY,2,2,4,0.369336182,1,0,DAN,post,4,3,69
D_HTY,2,3,4,0.526770569,1,0,DAN,post,4,3,69
D_HTY,2,4,4,0.3472069,1,1,DAN,post,4,3,69
D_HTY,2,5,4,0.414454432,1,0,DAN,post,4,3,69
D_HTY,2,6,4,0.634906342,1,0,DAN,post,4,3,69
D_HTY,2,7,4,0.771690519,1,1,DAN,post,4,3,69
D_HTY,2,8,4,1.489330348,1,0,DAN,post,4,3,69
D_HTY,2,9,4,1.247346467,1,0,DAN,post,4,3,69
D_HTY,2,10,4,0.617092057,1,1,DAN,post,4,3,69
D_HTY,2,11,4,0.503212343,1,0,DAN,post,4,3,69
D_HTY,2,12,4,0.621068042,1,1,DAN,post,4,3,69
D_HTY,2,13,4,0.482825417,1,0,DAN,post,4,3,69
D_HTY,2,14,4,0.714301297,1,0,DAN,post,4,3,69
D_HTY,2,15,4,0.583648138,1,1,DAN,post,4,3,69
D_HTY,2,16,4,0.430365114,1,0,DAN,post,4,3,69
D_HTY,2,17,4,0.558976455,1,0,DAN,post,4,3,69
D_HTY,2,18,4,0.901806082,1,1,DAN,post,4,3,69
D_HTY,0,1,1,0.445249892,1,0,FPCNB,pre,1,2,14
D_HTY,0,2,1,0.435284569,1,1,FPCNB,pre,1,2,14
D_HTY,0,3,1,0.37221248,1,0,FPCNB,pre,1,2,14
D_HTY,0,4,1,0.62788435,1,0,FPCNB,pre,1,2,14
D_HTY,0,5,1,0.394744633,1,0,FPCNB,pre,1,2,14
D_HTY,0,6,1,0.452449962,1,1,FPCNB,pre,1,2,14
D_HTY,0,7,1,0.4578569,1,0,FPCNB,pre,1,2,14
D_HTY,0,8,1,0.422753162,1,1,FPCNB,pre,1,2,14
D_HTY,0,9,1,0.313342615,1,0,FPCNB,pre,1,2,14
D_HTY,0,10,1,0.413979082,1,1,FPCNB,pre,1,2,14
D_HTY,0,11,1,0.307501225,1,0,FPCNB,pre,1,2,14
D_HTY,0,12,1,0.379251758,1,1,FPCNB,pre,1,2,14
D_HTY,0,13,1,0.40706781,1,0,FPCNB,pre,1,2,14
D_HTY,0,14,1,0.359531717,1,0,FPCNB,pre,1,2,14
D_HTY,0,15,1,0.394061791,1,1,FPCNB,pre,1,2,14
D_HTY,0,16,1,0.401811686,1,0,FPCNB,pre,1,2,14
D_HTY,0,17,1,0.352142402,1,0,FPCNB,pre,1,2,14
D_HTY,0,18,1,0.370031005,1,0,FPCNB,pre,1,2,14
D_HTY,0,1,2,0.445818792,1,0,FPCNB,pre,1,2,14
D_HTY,0,2,2,0.468781152,1,1,FPCNB,pre,1,2,14
D_HTY,0,3,2,0.38122135,1,0,FPCNB,pre,1,2,14
D_HTY,0,4,2,0.371834181,1,0,FPCNB,pre,1,2,14
D_HTY,0,5,2,0.355572552,1,0,FPCNB,pre,1,2,14
D_HTY,0,6,2,0.470054624,1,1,FPCNB,pre,1,2,14
D_HTY,0,7,2,0.483863115,1,0,FPCNB,pre,1,2,14
D_HTY,0,8,2,0.435366008,1,1,FPCNB,pre,1,2,14
D_HTY,0,9,2,0.364237317,1,0,FPCNB,pre,1,2,14
D_HTY,0,10,2,0.401757152,1,1,FPCNB,pre,1,2,14
D_HTY,0,11,2,0.422576516,1,0,FPCNB,pre,1,2,14
D_HTY,0,12,2,0.386069532,1,1,FPCNB,pre,1,2,14
D_HTY,0,13,2,0.428778248,1,0,FPCNB,pre,1,2,14
D_HTY,0,14,2,0.437742735,1,0,FPCNB,pre,1,2,14
D_HTY,0,15,2,0.424819209,1,1,FPCNB,pre,1,2,14
D_HTY,0,16,2,0.44546059,1,0,FPCNB,pre,1,2,14
D_HTY,0,17,2,0.391073992,1,0,FPCNB,pre,1,2,14
D_HTY,0,18,2,0.349847832,1,0,FPCNB,pre,1,2,14
D_HTY,0,1,3,0.388471713,1,0,FPCNB,pre,1,2,14
D_HTY,0,2,3,0.425625478,1,1,FPCNB,pre,1,2,14
D_HTY,0,3,3,0.409312501,1,0,FPCNB,pre,1,2,14
D_HTY,0,4,3,0.385149327,1,0,FPCNB,pre,1,2,14
D_HTY,0,5,3,0.366006243,1,0,FPCNB,pre,1,2,14
D_HTY,0,6,3,0.44550242,1,1,FPCNB,pre,1,2,14
D_HTY,0,7,3,0.726085155,1,0,FPCNB,pre,1,2,14
D_HTY,0,8,3,0.40066369,1,1,FPCNB,pre,1,2,14
D_HTY,0,9,3,0.392449745,1,0,FPCNB,pre,1,2,14
D_HTY,0,10,3,0.459121942,1,1,FPCNB,pre,1,2,14
D_HTY,0,11,3,0.407022966,1,0,FPCNB,pre,1,2,14
D_HTY,0,12,3,0.463768388,1,1,FPCNB,pre,1,2,14
D_HTY,0,13,3,0.451183715,1,0,FPCNB,pre,1,2,14
D_HTY,0,14,3,0.376730123,1,0,FPCNB,pre,1,2,14
D_HTY,0,15,3,0.434101682,1,1,FPCNB,pre,1,2,14
D_HTY,0,16,3,0.391835655,1,0,FPCNB,pre,1,2,14
D_HTY,0,17,3,0.39955782,1,0,FPCNB,pre,1,2,14
D_HTY,0,18,3,0.342248402,1,0,FPCNB,pre,1,2,14
D_HTY,0,1,4,0.487224784,1,0,FPCNB,pre,1,2,14
D_HTY,0,2,4,0.437278498,1,1,FPCNB,pre,1,2,14
D_HTY,0,3,4,0.467236814,1,0,FPCNB,pre,1,2,14
D_HTY,0,4,4,0.571096706,1,0,FPCNB,pre,1,2,14
D_HTY,0,5,4,0.358738469,1,0,FPCNB,pre,1,2,14
D_HTY,0,6,4,0.437407122,1,1,FPCNB,pre,1,2,14
D_HTY,0,7,4,0.376992029,1,0,FPCNB,pre,1,2,14
D_HTY,0,8,4,0.442780266,1,1,FPCNB,pre,1,2,14
D_HTY,0,9,4,0.391648017,1,0,FPCNB,pre,1,2,14
D_HTY,0,10,4,0.317416693,1,1,FPCNB,pre,1,2,14
D_HTY,0,11,4,0.46493865,1,0,FPCNB,pre,1,2,14
D_HTY,0,12,4,0.442518011,1,1,FPCNB,pre,1,2,14
D_HTY,0,13,4,0.391142908,1,0,FPCNB,pre,1,2,14
D_HTY,0,14,4,0.36529321,1,0,FPCNB,pre,1,2,14
D_HTY,0,15,4,0.41230004,1,1,FPCNB,pre,1,2,14
D_HTY,0,16,4,0.395574063,1,0,FPCNB,pre,1,2,14
D_HTY,0,17,4,0.380127264,1,0,FPCNB,pre,1,2,14
D_HTY,0,18,4,0.409821108,1,0,FPCNB,pre,1,2,14
D_HTY,1,1,1,0.353376162,1,0,FPCNB,pre,1,2,14
D_HTY,1,2,1,0.51698118,1,1,FPCNB,pre,1,2,14
D_HTY,1,3,1,0.454606889,1,0,FPCNB,pre,1,2,14
D_HTY,1,4,1,0.772270188,1,0,FPCNB,pre,1,2,14
D_HTY,1,5,1,0.423902863,1,0,FPCNB,pre,1,2,14
D_HTY,1,6,1,0.356681984,1,1,FPCNB,pre,1,2,14
D_HTY,1,7,1,0.421131241,1,0,FPCNB,pre,1,2,14
D_HTY,1,8,1,0.424921804,1,0,FPCNB,pre,1,2,14
D_HTY,1,9,1,0.703535806,1,1,FPCNB,pre,1,2,14
D_HTY,1,10,1,0.439454081,1,0,FPCNB,pre,1,2,14
D_HTY,1,11,1,0.656107897,1,1,FPCNB,pre,1,2,14
D_HTY,1,12,1,0.424595113,1,0,FPCNB,pre,1,2,14
D_HTY,1,13,1,0.437504538,1,0,FPCNB,pre,1,2,14
D_HTY,1,14,1,0.587025012,1,0,FPCNB,pre,1,2,14
D_HTY,1,15,1,0.831490635,1,0,FPCNB,pre,1,2,14
D_HTY,1,16,1,0.46610907,1,1,FPCNB,pre,1,2,14
D_HTY,1,17,1,0.501412341,1,0,FPCNB,pre,1,2,14
D_HTY,1,18,1,0.627403654,1,1,FPCNB,pre,1,2,14
D_HTY,1,1,2,0.331908479,1,0,FPCNB,pre,1,2,14
D_HTY,1,2,2,0.536627562,1,0,FPCNB,pre,1,2,14
D_HTY,1,4,2,0.671953228,1,0,FPCNB,pre,1,2,14
D_HTY,1,5,2,0.361321402,1,1,FPCNB,pre,1,2,14
D_HTY,1,6,2,0.617099928,1,0,FPCNB,pre,1,2,14
D_HTY,1,7,2,0.755974957,1,1,FPCNB,pre,1,2,14
D_HTY,1,8,2,0.55446353,1,0,FPCNB,pre,1,2,14
D_HTY,1,9,2,0.477537174,1,0,FPCNB,pre,1,2,14
D_HTY,1,10,2,0.501722794,1,0,FPCNB,pre,1,2,14
D_HTY,1,11,2,0.504451245,1,1,FPCNB,pre,1,2,14
D_HTY,1,12,2,0.683251061,1,0,FPCNB,pre,1,2,14
D_HTY,1,13,2,0.458467708,1,0,FPCNB,pre,1,2,14
D_HTY,1,14,2,0.539395187,1,1,FPCNB,pre,1,2,14
D_HTY,1,15,2,0.948471404,1,0,FPCNB,pre,1,2,14
D_HTY,1,16,2,0.735468495,1,0,FPCNB,pre,1,2,14
D_HTY,1,17,2,0.580586845,1,0,FPCNB,pre,1,2,14
D_HTY,1,18,2,0.368579998,1,1,FPCNB,pre,1,2,14
D_HTY,1,1,3,0.317954373,1,0,FPCNB,pre,1,2,14
D_HTY,1,2,3,0.541770057,1,1,FPCNB,pre,1,2,14
D_HTY,1,3,3,1.137233092,1,0,FPCNB,pre,1,2,14
D_HTY,1,4,3,0.608845439,1,0,FPCNB,pre,1,2,14
D_HTY,1,5,3,0.522004221,1,1,FPCNB,pre,1,2,14
D_HTY,1,6,3,0.420549477,1,0,FPCNB,pre,1,2,14
D_HTY,1,7,3,0.99002652,1,1,FPCNB,pre,1,2,14
D_HTY,1,8,3,0.393723088,1,0,FPCNB,pre,1,2,14
D_HTY,1,9,3,0.583400492,1,0,FPCNB,pre,1,2,14
D_HTY,1,10,3,0.398549183,1,1,FPCNB,pre,1,2,14
D_HTY,1,11,3,0.466818924,1,0,FPCNB,pre,1,2,14
D_HTY,1,12,3,0.472658434,1,1,FPCNB,pre,1,2,14
D_HTY,1,13,3,0.43027467,1,0,FPCNB,pre,1,2,14
D_HTY,1,14,3,0.461901987,1,0,FPCNB,pre,1,2,14
D_HTY,1,15,3,0.643278612,1,0,FPCNB,pre,1,2,14
D_HTY,1,16,3,0.613821302,1,0,FPCNB,pre,1,2,14
D_HTY,1,17,3,0.497526838,1,0,FPCNB,pre,1,2,14
D_HTY,1,18,3,0.600916555,1,1,FPCNB,pre,1,2,14
D_HTY,1,1,4,0.582928722,1,0,FPCNB,pre,1,2,14
D_HTY,1,2,4,0.634305083,1,0,FPCNB,pre,1,2,14
D_HTY,1,3,4,0.348476042,1,1,FPCNB,pre,1,2,14
D_HTY,1,4,4,0.40685698,1,0,FPCNB,pre,1,2,14
D_HTY,1,5,4,0.362881436,1,1,FPCNB,pre,1,2,14
D_HTY,1,6,4,0.670179499,1,0,FPCNB,pre,1,2,14
D_HTY,1,7,4,0.646851072,1,0,FPCNB,pre,1,2,14
D_HTY,1,8,4,0.576062508,1,1,FPCNB,pre,1,2,14
D_HTY,1,9,4,0.573284532,1,0,FPCNB,pre,1,2,14
D_HTY,1,10,4,0.619773493,1,0,FPCNB,pre,1,2,14
D_HTY,1,11,4,0.536409032,1,1,FPCNB,pre,1,2,14
D_HTY,1,12,4,0.406040378,1,0,FPCNB,pre,1,2,14
D_HTY,1,13,4,0.528867152,1,0,FPCNB,pre,1,2,14
D_HTY,1,14,4,0.48270282,1,1,FPCNB,pre,1,2,14
D_HTY,1,15,4,0.584183776,1,0,FPCNB,pre,1,2,14
D_HTY,1,16,4,0.621856492,1,1,FPCNB,pre,1,2,14
D_HTY,1,17,4,0.661630772,1,0,FPCNB,pre,1,2,14
D_HTY,1,18,4,0.868576938,1,0,FPCNB,pre,1,2,14
D_HTY,2,1,1,0.440264879,1,0,FPCNB,pre,1,2,14
D_HTY,2,2,1,0.42457573,1,0,FPCNB,pre,1,2,14
D_HTY,2,3,1,1.152239652,1,0,FPCNB,pre,1,2,14
D_HTY,2,4,1,1.306784934,1,1,FPCNB,pre,1,2,14
D_HTY,2,5,1,0.986525195,1,0,FPCNB,pre,1,2,14
D_HTY,2,6,1,0.723586343,1,0,FPCNB,pre,1,2,14
D_HTY,2,7,1,0.549132223,1,1,FPCNB,pre,1,2,14
D_HTY,2,8,1,0.626780844,1,0,FPCNB,pre,1,2,14
D_HTY,2,9,1,0.914663683,1,0,FPCNB,pre,1,2,14
D_HTY,2,10,1,0.35281433,1,1,FPCNB,pre,1,2,14
D_HTY,2,11,1,0.460771714,1,0,FPCNB,pre,1,2,14
D_HTY,2,12,1,0.581487556,1,1,FPCNB,pre,1,2,14
D_HTY,2,13,1,1.083075686,1,0,FPCNB,pre,1,2,14
D_HTY,2,14,1,0.612741037,1,1,FPCNB,pre,1,2,14
D_HTY,2,15,1,0.82913269,1,0,FPCNB,pre,1,2,14
D_HTY,2,16,1,0.624950322,1,0,FPCNB,pre,1,2,14
D_HTY,2,17,1,0.525212741,1,0,FPCNB,pre,1,2,14
D_HTY,2,18,1,0.507018937,1,1,FPCNB,pre,1,2,14
D_HTY,2,1,2,0.491369228,1,0,FPCNB,pre,1,2,14
D_HTY,2,2,2,0.603041828,1,0,FPCNB,pre,1,2,14
D_HTY,2,3,2,0.44360974,1,1,FPCNB,pre,1,2,14
D_HTY,2,4,2,0.705431131,1,0,FPCNB,pre,1,2,14
D_HTY,2,5,2,1.076878864,1,0,FPCNB,pre,1,2,14
D_HTY,2,6,2,0.96179035,1,1,FPCNB,pre,1,2,14
D_HTY,2,7,2,0.83531078,1,0,FPCNB,pre,1,2,14
D_HTY,2,8,2,0.475947555,1,1,FPCNB,pre,1,2,14
D_HTY,2,9,2,1.054801735,1,0,FPCNB,pre,1,2,14
D_HTY,2,10,2,1.980324469,1,0,FPCNB,pre,1,2,14
D_HTY,2,11,2,1.079230002,1,1,FPCNB,pre,1,2,14
D_HTY,2,12,2,0.748692885,1,0,FPCNB,pre,1,2,14
D_HTY,2,13,2,0.556738688,1,0,FPCNB,pre,1,2,14
D_HTY,2,14,2,0.525045204,1,0,FPCNB,pre,1,2,14
D_HTY,2,15,2,0.626639492,1,1,FPCNB,pre,1,2,14
D_HTY,2,16,2,0.480118813,1,0,FPCNB,pre,1,2,14
D_HTY,2,17,2,0.96578536,1,0,FPCNB,pre,1,2,14
D_HTY,2,18,2,0.3407042,1,1,FPCNB,pre,1,2,14
D_HTY,2,1,3,0.476768118,1,0,FPCNB,pre,1,2,14
D_HTY,2,2,3,0.47947848,1,0,FPCNB,pre,1,2,14
D_HTY,2,3,3,0.735136388,1,0,FPCNB,pre,1,2,14
D_HTY,2,4,3,0.437148162,1,1,FPCNB,pre,1,2,14
D_HTY,2,5,3,1.478038378,1,0,FPCNB,pre,1,2,14
D_HTY,2,6,3,0.868505585,1,0,FPCNB,pre,1,2,14
D_HTY,2,7,3,0.549373062,1,1,FPCNB,pre,1,2,14
D_HTY,2,8,3,1.517058719,1,0,FPCNB,pre,1,2,14
D_HTY,2,9,3,0.973613978,1,0,FPCNB,pre,1,2,14
D_HTY,2,10,3,0.427247911,1,1,FPCNB,pre,1,2,14
D_HTY,2,11,3,0.388084795,1,0,FPCNB,pre,1,2,14
D_HTY,2,12,3,0.59679526,1,1,FPCNB,pre,1,2,14
D_HTY,2,13,3,0.982272782,1,0,FPCNB,pre,1,2,14
D_HTY,2,14,3,0.84286497,1,0,FPCNB,pre,1,2,14
D_HTY,2,15,3,0.445510587,1,1,FPCNB,pre,1,2,14
D_HTY,2,16,3,0.751860204,1,0,FPCNB,pre,1,2,14
D_HTY,2,17,3,0.824455862,1,0,FPCNB,pre,1,2,14
D_HTY,2,18,3,0.614360553,1,1,FPCNB,pre,1,2,14
D_HTY,2,1,4,0.441716698,1,0,FPCNB,pre,1,2,14
D_HTY,2,2,4,0.338304852,1,0,FPCNB,pre,1,2,14
D_HTY,2,3,4,0.775945173,1,1,FPCNB,pre,1,2,14
D_HTY,2,4,4,0.746657453,1,0,FPCNB,pre,1,2,14
D_HTY,2,5,4,0.816440892,1,1,FPCNB,pre,1,2,14
D_HTY,2,6,4,0.540073694,1,0,FPCNB,pre,1,2,14
D_HTY,2,7,4,0.958821804,1,0,FPCNB,pre,1,2,14
D_HTY,2,9,4,1.558219579,1,0,FPCNB,pre,1,2,14
D_HTY,2,10,4,1.033079744,1,0,FPCNB,pre,1,2,14
D_HTY,2,11,4,0.491478052,1,1,FPCNB,pre,1,2,14
D_HTY,2,12,4,0.703055375,1,0,FPCNB,pre,1,2,14
D_HTY,2,13,4,0.79184216,1,1,FPCNB,pre,1,2,14
D_HTY,2,14,4,0.920440396,1,0,FPCNB,pre,1,2,14
D_HTY,2,15,4,0.890632566,1,0,FPCNB,pre,1,2,14
D_HTY,2,16,4,1.73619061,1,0,FPCNB,pre,1,2,14
D_HTY,2,17,4,1.447147248,1,0,FPCNB,pre,1,2,14
D_HTY,2,18,4,0.790792148,1,1,FPCNB,pre,1,2,14
D_HTY,0,1,1,0.384975236,1,0,FPCNB,post,2,2,14
D_HTY,0,2,1,0.360414715,1,0,FPCNB,post,2,2,14
D_HTY,0,3,1,0.364933956,1,0,FPCNB,post,2,2,14
D_HTY,0,4,1,0.372905098,1,1,FPCNB,post,2,2,14
D_HTY,0,5,1,0.351452958,1,0,FPCNB,post,2,2,14
D_HTY,0,6,1,0.482513485,1,0,FPCNB,post,2,2,14
D_HTY,0,7,1,0.426013217,1,0,FPCNB,post,2,2,14
D_HTY,0,8,1,0.441240136,1,0,FPCNB,post,2,2,14
D_HTY,0,9,1,0.337076633,1,1,FPCNB,post,2,2,14
D_HTY,0,10,1,0.29886464,1,0,FPCNB,post,2,2,14
D_HTY,0,11,1,0.519064812,1,1,FPCNB,post,2,2,14
D_HTY,0,12,1,0.277416766,1,0,FPCNB,post,2,2,14
D_HTY,0,13,1,0.678924582,1,1,FPCNB,post,2,2,14
D_HTY,0,14,1,0.599044082,1,0,FPCNB,post,2,2,14
D_HTY,0,15,1,0.48675857,1,1,FPCNB,post,2,2,14
D_HTY,0,16,1,0.299622006,1,0,FPCNB,post,2,2,14
D_HTY,0,17,1,0.419292726,1,1,FPCNB,post,2,2,14
D_HTY,0,18,1,0.319973873,1,0,FPCNB,post,2,2,14
D_HTY,0,1,2,0.315459906,1,0,FPCNB,post,2,2,14
D_HTY,0,2,2,0.376149888,1,0,FPCNB,post,2,2,14
D_HTY,0,3,2,0.301775148,1,0,FPCNB,post,2,2,14
D_HTY,0,4,2,0.404273889,1,1,FPCNB,post,2,2,14
D_HTY,0,5,2,0.3668964,1,0,FPCNB,post,2,2,14
D_HTY,0,6,2,0.298553963,1,0,FPCNB,post,2,2,14
D_HTY,0,7,2,0.34722537,1,0,FPCNB,post,2,2,14
D_HTY,0,8,2,0.320780608,1,0,FPCNB,post,2,2,14
D_HTY,0,9,2,0.532080452,1,1,FPCNB,post,2,2,14
D_HTY,0,10,2,0.26824649,1,0,FPCNB,post,2,2,14
D_HTY,0,11,2,0.428976437,1,1,FPCNB,post,2,2,14
D_HTY,0,12,2,0.32833038,1,0,FPCNB,post,2,2,14
D_HTY,0,13,2,0.35515069,1,1,FPCNB,post,2,2,14
D_HTY,0,14,2,0.319896471,1,0,FPCNB,post,2,2,14
D_HTY,0,15,2,0.354219375,1,1,FPCNB,post,2,2,14
D_HTY,0,16,2,0.315143662,1,0,FPCNB,post,2,2,14
D_HTY,0,17,2,0.385339102,1,1,FPCNB,post,2,2,14
D_HTY,0,18,2,0.285096058,1,0,FPCNB,post,2,2,14
D_HTY,0,1,3,0.29556142,1,0,FPCNB,post,2,2,14
D_HTY,0,2,3,0.34970025,1,0,FPCNB,post,2,2,14
D_HTY,0,3,3,0.345064144,1,0,FPCNB,post,2,2,14
D_HTY,0,4,3,0.382614878,1,1,FPCNB,post,2,2,14
D_HTY,0,5,3,0.338487385,1,0,FPCNB,post,2,2,14
D_HTY,0,6,3,0.3506217,1,0,FPCNB,post,2,2,14
D_HTY,0,7,3,0.376681989,1,0,FPCNB,post,2,2,14
D_HTY,0,8,3,0.294959468,1,0,FPCNB,post,2,2,14
D_HTY,0,9,3,0.41873364,1,1,FPCNB,post,2,2,14
D_HTY,0,10,3,0.329471065,1,0,FPCNB,post,2,2,14
D_HTY,0,11,3,0.355818535,1,1,FPCNB,post,2,2,14
D_HTY,0,12,3,0.29472427,1,0,FPCNB,post,2,2,14
D_HTY,0,13,3,0.33613359,1,1,FPCNB,post,2,2,14
D_HTY,0,14,3,0.31386559,1,0,FPCNB,post,2,2,14
D_HTY,0,15,3,0.3456112,1,1,FPCNB,post,2,2,14
D_HTY,0,16,3,0.447978292,1,0,FPCNB,post,2,2,14
D_HTY,0,17,3,0.470690247,1,1,FPCNB,post,2,2,14
D_HTY,0,18,3,0.282476758,1,0,FPCNB,post,2,2,14
D_HTY,0,1,4,0.283977666,1,0,FPCNB,post,2,2,14
D_HTY,0,2,4,0.359246083,1,0,FPCNB,post,2,2,14
D_HTY,0,3,4,0.369277918,1,0,FPCNB,post,2,2,14
D_HTY,0,4,4,0.464248585,1,1,FPCNB,post,2,2,14
D_HTY,0,5,4,0.297865074,1,0,FPCNB,post,2,2,14
D_HTY,0,6,4,0.382430388,1,0,FPCNB,post,2,2,14
D_HTY,0,7,4,0.33249479,1,0,FPCNB,post,2,2,14
D_HTY,0,8,4,0.366816324,1,0,FPCNB,post,2,2,14
D_HTY,0,9,4,0.28940604,1,1,FPCNB,post,2,2,14
D_HTY,0,10,4,0.325037136,1,0,FPCNB,post,2,2,14
D_HTY,0,11,4,0.28679331,1,1,FPCNB,post,2,2,14
D_HTY,0,12,4,0.289454056,1,0,FPCNB,post,2,2,14
D_HTY,0,13,4,0.287023637,1,1,FPCNB,post,2,2,14
D_HTY,0,14,4,0.332325218,1,0,FPCNB,post,2,2,14
D_HTY,0,15,4,0.31112869,1,1,FPCNB,post,2,2,14
D_HTY,0,16,4,0.307719959,1,0,FPCNB,post,2,2,14
D_HTY,0,17,4,0.296666598,1,1,FPCNB,post,2,2,14
D_HTY,0,18,4,0.305123462,1,0,FPCNB,post,2,2,14
D_HTY,1,1,1,0.3389389,1,0,FPCNB,post,2,2,14
D_HTY,1,2,1,0.400716052,1,0,FPCNB,post,2,2,14
D_HTY,1,3,1,0.585130984,1,1,FPCNB,post,2,2,14
D_HTY,1,4,1,0.323076998,1,0,FPCNB,post,2,2,14
D_HTY,1,5,1,0.426579724,1,1,FPCNB,post,2,2,14
D_HTY,1,6,1,0.51744895,1,0,FPCNB,post,2,2,14
D_HTY,1,7,1,0.414062186,1,1,FPCNB,post,2,2,14
D_HTY,1,8,1,0.365064964,1,0,FPCNB,post,2,2,14
D_HTY,1,9,1,0.445767385,1,0,FPCNB,post,2,2,14
D_HTY,1,11,1,0.339069272,1,1,FPCNB,post,2,2,14
D_HTY,1,12,1,0.820070333,1,0,FPCNB,post,2,2,14
D_HTY,1,13,1,0.54884909,1,0,FPCNB,post,2,2,14
D_HTY,1,14,1,0.333170642,1,1,FPCNB,post,2,2,14
D_HTY,1,15,1,0.37335274,1,0,FPCNB,post,2,2,14
D_HTY,1,16,1,0.418213343,1,0,FPCNB,post,2,2,14
D_HTY,1,17,1,0.566914605,1,0,FPCNB,post,2,2,14
D_HTY,1,18,1,0.58059014,1,1,FPCNB,post,2,2,14
D_HTY,1,1,2,0.348087642,1,0,FPCNB,post,2,2,14
D_HTY,1,2,2,0.560766055,1,1,FPCNB,post,2,2,14
D_HTY,1,3,2,0.346430607,1,0,FPCNB,post,2,2,14
D_HTY,1,4,2,0.42620507,1,0,FPCNB,post,2,2,14
D_HTY,1,5,2,0.409033935,1,1,FPCNB,post,2,2,14
D_HTY,1,6,2,0.239484108,1,0,FPCNB,post,2,2,14
D_HTY,1,7,2,0.340162237,1,1,FPCNB,post,2,2,14
D_HTY,1,8,2,0.428070452,1,0,FPCNB,post,2,2,14
D_HTY,1,9,2,0.48074479,1,0,FPCNB,post,2,2,14
D_HTY,1,10,2,0.346230626,1,1,FPCNB,post,2,2,14
D_HTY,1,11,2,0.403899166,1,0,FPCNB,post,2,2,14
D_HTY,1,12,2,0.395615963,1,1,FPCNB,post,2,2,14
D_HTY,1,13,2,0.29931943,1,0,FPCNB,post,2,2,14
D_HTY,1,14,2,0.406952647,1,0,FPCNB,post,2,2,14
D_HTY,1,15,2,0.403510828,1,0,FPCNB,post,2,2,14
D_HTY,1,16,2,0.601742785,1,0,FPCNB,post,2,2,14
D_HTY,1,17,2,0.472588653,1,0,FPCNB,post,2,2,14
D_HTY,1,18,2,0.45310711,1,1,FPCNB,post,2,2,14
D_HTY,1,1,3,0.346744768,1,0,FPCNB,post,2,2,14
D_HTY,1,3,3,0.37985844,1,1,FPCNB,post,2,2,14
D_HTY,1,4,3,0.484436519,1,0,FPCNB,post,2,2,14
D_HTY,1,5,3,0.534214638,1,1,FPCNB,post,2,2,14
D_HTY,1,6,3,0.698950605,1,0,FPCNB,post,2,2,14
D_HTY,1,7,3,0.523511976,1,0,FPCNB,post,2,2,14
D_HTY,1,8,3,0.582320042,1,1,FPCNB,post,2,2,14
D_HTY,1,9,3,0.555855797,1,0,FPCNB,post,2,2,14
D_HTY,1,10,3,0.414478986,1,0,FPCNB,post,2,2,14
D_HTY,1,11,3,0.3287061,1,1,FPCNB,post,2,2,14
D_HTY,1,12,3,0.359256235,1,0,FPCNB,post,2,2,14
D_HTY,1,13,3,0.469414323,1,0,FPCNB,post,2,2,14
D_HTY,1,14,3,0.347342245,1,1,FPCNB,post,2,2,14
D_HTY,1,15,3,0.466580232,1,0,FPCNB,post,2,2,14
D_HTY,1,17,3,0.483866542,1,0,FPCNB,post,2,2,14
D_HTY,1,18,3,0.470423924,1,0,FPCNB,post,2,2,14
D_HTY,1,1,4,0.350664048,1,0,FPCNB,post,2,2,14
D_HTY,1,2,4,0.400628779,1,1,FPCNB,post,2,2,14
D_HTY,1,3,4,0.66622618,1,0,FPCNB,post,2,2,14
D_HTY,1,4,4,0.824959422,1,0,FPCNB,post,2,2,14
D_HTY,1,5,4,0.43341299,1,0,FPCNB,post,2,2,14
D_HTY,1,6,4,0.367034736,1,1,FPCNB,post,2,2,14
D_HTY,1,7,4,0.331986537,1,0,FPCNB,post,2,2,14
D_HTY,1,8,4,0.49335176,1,0,FPCNB,post,2,2,14
D_HTY,1,9,4,0.355078046,1,1,FPCNB,post,2,2,14
D_HTY,1,10,4,0.299715777,1,0,FPCNB,post,2,2,14
D_HTY,1,11,4,0.417217832,1,1,FPCNB,post,2,2,14
D_HTY,1,12,4,0.702240823,1,0,FPCNB,post,2,2,14
D_HTY,1,13,4,0.611813116,1,0,FPCNB,post,2,2,14
D_HTY,1,14,4,0.45939508,1,0,FPCNB,post,2,2,14
D_HTY,1,15,4,0.408876032,1,0,FPCNB,post,2,2,14
D_HTY,1,16,4,0.491230191,1,1,FPCNB,post,2,2,14
D_HTY,1,17,4,0.288220651,1,0,FPCNB,post,2,2,14
D_HTY,1,18,4,0.46972061,1,1,FPCNB,post,2,2,14
D_HTY,2,1,1,0.398952324,1,0,FPCNB,post,2,2,14
D_HTY,2,2,1,0.35111399,1,0,FPCNB,post,2,2,14
D_HTY,2,3,1,0.423947182,1,1,FPCNB,post,2,2,14
D_HTY,2,4,1,0.471133539,1,0,FPCNB,post,2,2,14
D_HTY,2,5,1,0.968096032,1,0,FPCNB,post,2,2,14
D_HTY,2,6,1,0.696004637,1,1,FPCNB,post,2,2,14
D_HTY,2,7,1,0.47879254,1,0,FPCNB,post,2,2,14
D_HTY,2,8,1,0.655462584,1,1,FPCNB,post,2,2,14
D_HTY,2,9,1,0.564259974,1,0,FPCNB,post,2,2,14
D_HTY,2,10,1,0.795164927,1,0,FPCNB,post,2,2,14
D_HTY,2,11,1,0.610403922,1,1,FPCNB,post,2,2,14
D_HTY,2,12,1,0.36097487,1,0,FPCNB,post,2,2,14
D_HTY,2,13,1,0.498340964,1,0,FPCNB,post,2,2,14
D_HTY,2,14,1,0.606457664,1,0,FPCNB,post,2,2,14
D_HTY,2,16,1,0.726353068,1,0,FPCNB,post,2,2,14
D_HTY,2,17,1,0.760080484,1,0,FPCNB,post,2,2,14
D_HTY,2,18,1,0.385631944,1,1,FPCNB,post,2,2,14
D_HTY,2,1,2,0.312203815,1,0,FPCNB,post,2,2,14
D_HTY,2,2,2,0.306894638,1,0,FPCNB,post,2,2,14
D_HTY,2,3,2,0.617457656,1,0,FPCNB,post,2,2,14
D_HTY,2,4,2,0.376051608,1,1,FPCNB,post,2,2,14
D_HTY,2,5,2,0.456625965,1,0,FPCNB,post,2,2,14
D_HTY,2,6,2,1.04240136,1,0,FPCNB,post,2,2,14
D_HTY,2,7,2,0.716275614,1,1,FPCNB,post,2,2,14
D_HTY,2,8,2,1.458730267,1,0,FPCNB,post,2,2,14
D_HTY,2,9,2,0.93536844,1,0,FPCNB,post,2,2,14
D_HTY,2,10,2,0.404143209,1,1,FPCNB,post,2,2,14
D_HTY,2,11,2,0.867588338,1,0,FPCNB,post,2,2,14
D_HTY,2,12,2,0.854358662,1,1,FPCNB,post,2,2,14
D_HTY,2,13,2,0.801999195,1,0,FPCNB,post,2,2,14
D_HTY,2,14,2,0.758945615,1,0,FPCNB,post,2,2,14
D_HTY,2,15,2,0.612028664,1,1,FPCNB,post,2,2,14
D_HTY,2,16,2,1.257673266,1,0,FPCNB,post,2,2,14
D_HTY,2,17,2,1.03169143,1,0,FPCNB,post,2,2,14
D_HTY,2,18,2,0.366824675,1,1,FPCNB,post,2,2,14
D_HTY,2,1,3,0.337986238,1,0,FPCNB,post,2,2,14
D_HTY,2,2,3,0.449909724,1,0,FPCNB,post,2,2,14
D_HTY,2,3,3,0.596894169,1,1,FPCNB,post,2,2,14
D_HTY,2,4,3,0.809244269,1,0,FPCNB,post,2,2,14
D_HTY,2,5,3,0.84619125,1,1,FPCNB,post,2,2,14
D_HTY,2,6,3,1.45758873,1,0,FPCNB,post,2,2,14
D_HTY,2,7,3,1.706208602,1,0,FPCNB,post,2,2,14
D_HTY,2,8,3,0.715146413,1,1,FPCNB,post,2,2,14
D_HTY,2,9,3,0.785509266,1,0,FPCNB,post,2,2,14
D_HTY,2,11,3,0.882927928,1,1,FPCNB,post,2,2,14
D_HTY,2,12,3,0.83277758,1,0,FPCNB,post,2,2,14
D_HTY,2,13,3,0.992235136,1,1,FPCNB,post,2,2,14
D_HTY,2,14,3,0.740878156,1,0,FPCNB,post,2,2,14
D_HTY,2,15,3,1.433264587,1,0,FPCNB,post,2,2,14
D_HTY,2,16,3,0.93186677,1,0,FPCNB,post,2,2,14
D_HTY,2,17,3,0.560425125,1,0,FPCNB,post,2,2,14
D_HTY,2,18,3,0.378206032,1,1,FPCNB,post,2,2,14
D_HTY,2,1,4,0.415915592,1,0,FPCNB,post,2,2,14
D_HTY,2,2,4,0.425422152,1,0,FPCNB,post,2,2,14
D_HTY,2,3,4,0.983872076,1,0,FPCNB,post,2,2,14
D_HTY,2,4,4,0.576681467,1,1,FPCNB,post,2,2,14
D_HTY,2,5,4,1.231265742,1,0,FPCNB,post,2,2,14
D_HTY,2,6,4,0.971881686,1,0,FPCNB,post,2,2,14
D_HTY,2,7,4,0.386275517,1,1,FPCNB,post,2,2,14
D_HTY,2,8,4,1.214278015,1,0,FPCNB,post,2,2,14
D_HTY,2,9,4,0.758716488,1,0,FPCNB,post,2,2,14
D_HTY,2,10,4,0.585438252,1,1,FPCNB,post,2,2,14
D_HTY,2,11,4,0.816554752,1,0,FPCNB,post,2,2,14
D_HTY,2,12,4,0.676796509,1,1,FPCNB,post,2,2,14
D_HTY,2,13,4,1.050880328,1,0,FPCNB,post,2,2,14
D_HTY,2,14,4,0.49629025,1,1,FPCNB,post,2,2,14
D_HTY,2,15,4,1.449567246,1,0,FPCNB,post,2,2,14
D_HTY,2,16,4,1.039288802,1,0,FPCNB,post,2,2,14
D_HTY,2,17,4,0.805607785,1,0,FPCNB,post,2,2,14
D_HTY,2,18,4,0.417540438,1,1,FPCNB,post,2,2,14
D_HTY,0,1,1,0.485548535,1,1,vertex,pre,6,1,0
D_HTY,0,2,1,0.495426632,1,0,vertex,pre,6,1,0
D_HTY,0,3,1,0.368220885,1,1,vertex,pre,6,1,0
D_HTY,0,4,1,0.475288737,1,0,vertex,pre,6,1,0
D_HTY,0,5,1,0.416816998,1,0,vertex,pre,6,1,0
D_HTY,0,6,1,0.355184204,1,1,vertex,pre,6,1,0
D_HTY,0,7,1,0.469690043,1,0,vertex,pre,6,1,0
D_HTY,0,8,1,0.334493023,1,0,vertex,pre,6,1,0
D_HTY,0,9,1,0.462339294,1,1,vertex,pre,6,1,0
D_HTY,0,10,1,0.402702432,1,0,vertex,pre,6,1,0
D_HTY,0,11,1,0.443264359,1,0,vertex,pre,6,1,0
D_HTY,0,12,1,0.434974373,1,0,vertex,pre,6,1,0
D_HTY,0,13,1,0.322887596,1,0,vertex,pre,6,1,0
D_HTY,0,14,1,0.456363286,1,0,vertex,pre,6,1,0
D_HTY,0,15,1,0.508030778,1,0,vertex,pre,6,1,0
D_HTY,0,16,1,0.509785425,1,1,vertex,pre,6,1,0
D_HTY,0,17,1,0.549489842,1,0,vertex,pre,6,1,0
D_HTY,0,18,1,0.416926917,1,1,vertex,pre,6,1,0
D_HTY,0,1,2,0.51314323,1,1,vertex,pre,6,1,0
D_HTY,0,2,2,0.34986673,1,0,vertex,pre,6,1,0
D_HTY,0,3,2,0.316912703,1,1,vertex,pre,6,1,0
D_HTY,0,4,2,0.441021981,1,0,vertex,pre,6,1,0
D_HTY,0,5,2,0.279883458,1,0,vertex,pre,6,1,0
D_HTY,0,6,2,0.445112172,1,1,vertex,pre,6,1,0
D_HTY,0,7,2,0.350937834,1,0,vertex,pre,6,1,0
D_HTY,0,8,2,0.370356087,1,0,vertex,pre,6,1,0
D_HTY,0,9,2,0.426563175,1,1,vertex,pre,6,1,0
D_HTY,0,10,2,0.400079363,1,0,vertex,pre,6,1,0
D_HTY,0,11,2,0.37468606,1,0,vertex,pre,6,1,0
D_HTY,0,12,2,0.402542355,1,0,vertex,pre,6,1,0
D_HTY,0,13,2,0.31656634,1,0,vertex,pre,6,1,0
D_HTY,0,14,2,0.395590358,1,0,vertex,pre,6,1,0
D_HTY,0,15,2,0.39428489,1,0,vertex,pre,6,1,0
D_HTY,0,16,2,0.310821482,1,1,vertex,pre,6,1,0
D_HTY,0,17,2,0.416716375,1,0,vertex,pre,6,1,0
D_HTY,0,18,2,0.475223262,1,1,vertex,pre,6,1,0
D_HTY,0,1,3,0.437472787,1,1,vertex,pre,6,1,0
D_HTY,0,2,3,0.402688771,1,0,vertex,pre,6,1,0
D_HTY,0,3,3,0.381617817,1,1,vertex,pre,6,1,0
D_HTY,0,4,3,0.363855762,1,0,vertex,pre,6,1,0
D_HTY,0,5,3,0.41090688,1,0,vertex,pre,6,1,0
D_HTY,0,6,3,0.397981059,1,1,vertex,pre,6,1,0
D_HTY,0,7,3,0.375573022,1,0,vertex,pre,6,1,0
D_HTY,0,8,3,0.386173314,1,0,vertex,pre,6,1,0
D_HTY,0,9,3,0.382160326,1,1,vertex,pre,6,1,0
D_HTY,0,10,3,0.360482648,1,0,vertex,pre,6,1,0
D_HTY,0,11,3,0.347015519,1,0,vertex,pre,6,1,0
D_HTY,0,12,3,0.36534425,1,0,vertex,pre,6,1,0
D_HTY,0,13,3,0.358651342,1,0,vertex,pre,6,1,0
D_HTY,0,14,3,0.338403099,1,0,vertex,pre,6,1,0
D_HTY,0,15,3,0.363593909,1,0,vertex,pre,6,1,0
D_HTY,0,16,3,0.426265546,1,1,vertex,pre,6,1,0
D_HTY,0,17,3,0.250415326,1,0,vertex,pre,6,1,0
D_HTY,0,18,3,0.320665292,1,1,vertex,pre,6,1,0
D_HTY,0,2,4,0.457817998,1,0,vertex,pre,6,1,0
D_HTY,0,4,4,0.558105883,1,0,vertex,pre,6,1,0
D_HTY,0,5,4,0.334356114,1,0,vertex,pre,6,1,0
D_HTY,0,6,4,0.39613964,1,1,vertex,pre,6,1,0
D_HTY,0,7,4,0.40976476,1,0,vertex,pre,6,1,0
D_HTY,0,8,4,0.382057328,1,0,vertex,pre,6,1,0
D_HTY,0,9,4,0.485150166,1,1,vertex,pre,6,1,0
D_HTY,0,10,4,0.333129142,1,0,vertex,pre,6,1,0
D_HTY,0,11,4,0.380735037,1,0,vertex,pre,6,1,0
D_HTY,0,12,4,0.465380487,1,0,vertex,pre,6,1,0
D_HTY,0,13,4,0.464895538,1,0,vertex,pre,6,1,0
D_HTY,0,14,4,0.364594436,1,0,vertex,pre,6,1,0
D_HTY,0,15,4,0.432987956,1,0,vertex,pre,6,1,0
D_HTY,0,16,4,0.640305783,1,1,vertex,pre,6,1,0
D_HTY,0,17,4,0.311149342,1,0,vertex,pre,6,1,0
D_HTY,0,18,4,0.433633863,1,1,vertex,pre,6,1,0
D_HTY,1,1,1,0.628101868,1,0,vertex,pre,6,1,0
D_HTY,1,2,1,0.65745445,1,1,vertex,pre,6,1,0
D_HTY,1,3,1,0.335606194,1,0,vertex,pre,6,1,0
D_HTY,1,4,1,0.504265856,1,0,vertex,pre,6,1,0
D_HTY,1,5,1,0.507769833,1,1,vertex,pre,6,1,0
D_HTY,1,6,1,0.362656104,1,0,vertex,pre,6,1,0
D_HTY,1,8,1,0.641657206,1,0,vertex,pre,6,1,0
D_HTY,1,9,1,0.712511647,1,0,vertex,pre,6,1,0
D_HTY,1,10,1,0.433277425,1,1,vertex,pre,6,1,0
D_HTY,1,11,1,0.38294395,1,0,vertex,pre,6,1,0
D_HTY,1,12,1,0.56926035,1,1,vertex,pre,6,1,0
D_HTY,1,13,1,0.882196842,1,0,vertex,pre,6,1,0
D_HTY,1,14,1,0.517768737,1,0,vertex,pre,6,1,0
D_HTY,1,15,1,0.453124856,1,0,vertex,pre,6,1,0
D_HTY,1,16,1,0.44812693,1,0,vertex,pre,6,1,0
D_HTY,1,17,1,0.464692037,1,0,vertex,pre,6,1,0
D_HTY,1,18,1,0.455094129,1,1,vertex,pre,6,1,0
D_HTY,1,1,2,0.350919302,1,0,vertex,pre,6,1,0
D_HTY,1,2,2,0.556817176,1,0,vertex,pre,6,1,0
D_HTY,1,3,2,0.796259298,1,1,vertex,pre,6,1,0
D_HTY,1,4,2,0.991839282,1,0,vertex,pre,6,1,0
D_HTY,1,5,2,0.695687452,1,1,vertex,pre,6,1,0
D_HTY,1,6,2,0.73240645,1,0,vertex,pre,6,1,0
D_HTY,1,7,2,0.492969493,1,1,vertex,pre,6,1,0
D_HTY,1,8,2,0.754654416,1,0,vertex,pre,6,1,0
D_HTY,1,9,2,0.677049502,1,0,vertex,pre,6,1,0
D_HTY,1,10,2,0.634842546,1,0,vertex,pre,6,1,0
D_HTY,1,11,2,0.7424313,1,1,vertex,pre,6,1,0
D_HTY,1,12,2,0.491493102,1,0,vertex,pre,6,1,0
D_HTY,1,13,2,0.829259818,1,0,vertex,pre,6,1,0
D_HTY,1,14,2,0.49011259,1,1,vertex,pre,6,1,0
D_HTY,1,15,2,0.605862632,1,0,vertex,pre,6,1,0
D_HTY,1,16,2,0.47870836,1,0,vertex,pre,6,1,0
D_HTY,1,17,2,0.612491558,1,0,vertex,pre,6,1,0
D_HTY,1,18,2,0.64825265,1,1,vertex,pre,6,1,0
D_HTY,1,1,3,0.732257748,1,0,vertex,pre,6,1,0
D_HTY,1,2,3,0.533217117,1,1,vertex,pre,6,1,0
D_HTY,1,3,3,0.433748008,1,0,vertex,pre,6,1,0
D_HTY,1,4,3,1.387366522,1,0,vertex,pre,6,1,0
D_HTY,1,5,3,0.554412242,1,0,vertex,pre,6,1,0
D_HTY,1,6,3,0.692797808,1,1,vertex,pre,6,1,0
D_HTY,1,7,3,0.73777514,1,0,vertex,pre,6,1,0
D_HTY,1,8,3,0.530416254,1,0,vertex,pre,6,1,0
D_HTY,1,9,3,0.4089481,1,1,vertex,pre,6,1,0
D_HTY,1,10,3,0.644509478,1,0,vertex,pre,6,1,0
D_HTY,1,11,3,0.626060824,1,1,vertex,pre,6,1,0
D_HTY,1,12,3,0.484753667,1,0,vertex,pre,6,1,0
D_HTY,1,13,3,0.642575827,1,0,vertex,pre,6,1,0
D_HTY,1,14,3,0.825197296,1,0,vertex,pre,6,1,0
D_HTY,1,15,3,0.909247494,1,0,vertex,pre,6,1,0
D_HTY,1,16,3,0.61099561,1,1,vertex,pre,6,1,0
D_HTY,1,17,3,0.539621864,1,0,vertex,pre,6,1,0
D_HTY,1,18,3,0.583484075,1,1,vertex,pre,6,1,0
D_HTY,1,1,4,0.503963115,1,0,vertex,pre,6,1,0
D_HTY,1,3,4,0.66137485,1,1,vertex,pre,6,1,0
D_HTY,1,4,4,0.593804667,1,0,vertex,pre,6,1,0
D_HTY,1,5,4,0.58183081,1,1,vertex,pre,6,1,0
D_HTY,1,6,4,0.499091642,1,0,vertex,pre,6,1,0
D_HTY,1,7,4,0.847401515,1,0,vertex,pre,6,1,0
D_HTY,1,8,4,0.535964247,1,1,vertex,pre,6,1,0
